File: EXPERIMENTAL/DATA/month-old_I-cell_passivation/2024-06-11_Exploration-measurement-moth-old-I-cells/2024-06-11_month-old-I-cell_built-2024-05-16-old-OCV-2.5V_deltaX-110.3mm_02_MB_C02.txt
time/s	Ewe/V	I/mA	error
60.053	2.43093	-0.0250311	0
60.1452	0.0093895	-9.69089	0
60.1492	0.00937041	-9.58184	0
60.153	0.00931314	-9.47603	0
60.1568	0.00919861	-9.36965	0
60.1604	0.0093895	-9.26721	0
60.164	0.00931314	-9.16395	0
60.1676	0.00933223	-9.05923	0
60.1712	0.00935132	-8.95291	0
60.1748	0.00931314	-8.84774	0
60.1784	0.00935132	-8.74015	0
60.182	0.00931314	-8.63434	0
60.1856	0.00931314	-8.52612	0
60.1892	0.00933223	-8.41974	0
60.1928	0.00931314	-8.31157	0
60.1964	0.00937041	-8.20468	0
60.2	0.00933223	-8.09786	0
60.2036	0.00929405	-7.99078	0
60.2072	0.00919861	-7.88478	0
60.2108	0.00925588	-7.77872	0
60.2144	0.00933223	-7.67558	0
60.218	0.00929405	-7.57181	0
60.2216	0.00937041	-7.46836	0
60.2252	0.00931314	-7.36567	0
60.2288	0.00931314	-7.26393	0
60.2324	0.0093895	-7.16315	0
60.2362	0.00931314	-7.05811	0
60.2402	0.00937041	-6.94829	0
60.2442	0.00935132	-6.83987	0
60.2482	0.00935132	-6.73292	0
60.2522	0.00937041	-6.6266	0
60.2562	0.00942767	-6.52252	0
60.2602	0.0093895	-6.41887	0
60.2642	0.00935132	-6.31637	0
60.2684	0.00946585	-6.21177	0
60.2726	0.00937041	-6.10743	0
60.277	0.00950403	-5.99971	0
60.2814	0.00931314	-5.89403	0
60.2858	0.00940858	-5.79026	0
60.2902	0.00925588	-5.68751	0
60.2946	0.00937041	-5.58533	0
60.2992	0.00933223	-5.48136	0
60.304	0.00931314	-5.37371	0
60.3088	0.00935132	-5.26822	0
60.3136	0.00935132	-5.16388	0
60.3184	0.00929405	-5.0617	0
60.3234	0.00946585	-4.95665	0
60.3286	0.00944676	-4.84938	0
60.3338	0.00927497	-4.74389	0
60.339	0.00952311	-4.64037	0
60.3444	0.00935132	-4.53552	0
60.35	0.00944676	-4.42959	0
60.3556	0.00937041	-4.32607	0
60.3612	0.00937041	-4.22516	0
60.3672	0.00937041	-4.12012	0
60.3732	0.0093895	-4.01889	0
60.3796	0.00927497	-3.91493	0
60.386	0.00940858	-3.81389	0
60.3928	0.00944676	-3.71076	0
60.3998	0.00937041	-3.60959	0
60.4072	0.00940858	-3.5069	0
60.415	0.0093895	-3.40313	0
60.4232	0.00933223	-3.29968	0
60.4318	0.00937041	-3.1968	0
60.4406	0.00940858	-3.09646	0
60.4502	0.00940858	-2.9925	0
60.4604	0.00933223	-2.89095	0
60.471	0.00942767	-2.79036	0
60.4824	0.00946585	-2.68856	0
60.4946	0.00935132	-2.5874	0
60.5076	0.00929405	-2.48554	0
60.5218	0.00931314	-2.38336	0
60.5366	0.00950403	-2.28277	0
60.5526	0.00933223	-2.18192	0
60.57	0.0093895	-2.08101	0
60.5886	0.00937041	-1.98042	0
60.609	0.00937041	-1.8792	0
60.6312	0.0093895	-1.77791	0
60.6556	0.00942767	-1.67643	0
60.6826	0.00942767	-1.57622	0
60.713	0.00933223	-1.47594	0
60.7472	0.00937041	-1.37548	0
60.787	0.00944676	-1.27483	0
60.834	0.00942767	-1.17398	0
60.89	0.00929405	-1.0739	0
60.9598	0.00931314	-0.972865	0
61.0472	0.0093895	-0.872466	0
61.1594	0.00933223	-0.771048	0
61.307	0.00923679	-0.67014	0
61.5058	0.00933223	-0.569613	0
61.7946	0.00940858	-0.468577	0
62.2674	0.00937041	-0.368506	0
63.1262	0.00937041	-0.268406	0
65.2448	0.00935132	-0.168313	0
75.3352	0.00937041	-0.0682445	0
95.3352	0.00935132	-0.0344256	0
115.335	0.00942767	-0.0235862	0
135.335	0.0093895	-0.0180107	0
155.335	0.00940858	-0.0146139	0
175.335	0.00935132	-0.0123568	0
195.335	0.00927497	-0.0106654	0
215.335	0.00940858	-0.00938577	0
235.335	0.00946585	-0.00835109	0
255.335	0.00933223	-0.00755313	0
275.335	0.00927497	-0.00694797	0
295.335	0.00935132	-0.00634918	0
315.335	0.00935132	-0.00593175	0
335.335	0.00933223	-0.00556967	0
355.335	0.00940858	-0.00525978	0
375.335	0.0093895	-0.00495052	0
395.335	0.00937041	-0.00465144	0
415.335	0.00933223	-0.00445216	0
435.335	0.00929405	-0.00425986	0
455.335	0.0093895	-0.00408297	0
475.335	0.00927497	-0.00393161	0
495.335	0.00933223	-0.00375625	0
515.335	0.00931314	-0.00363679	0
535.335	0.00935132	-0.00349161	0
555.335	0.00942767	-0.00333929	0
575.335	0.0093895	-0.00328753	0
595.335	0.00935132	-0.00317437	0
615.335	0.00927497	-0.00308421	0
635.335	0.00933223	-0.0030262	0
655.335	0.00925588	-0.00292126	0
675.335	0.00940858	-0.00284198	0
695.335	0.00942767	-0.00278486	0
715.335	0.0093895	-0.00273233	0
735.335	0.00933223	-0.00265363	0
755.335	0.00935132	-0.00258728	0
775.335	0.00942767	-0.00273781	0
795.335	0.00942767	-0.00249749	0
815.335	0.00935132	-0.00244337	0
835.335	0.00931314	-0.00241357	0
855.335	0.00933223	-0.00234174	0
875.335	0.0092177	-0.00229468	0
895.335	0.00931314	-0.00227182	0
915.335	0.00935132	-0.00222528	0
935.335	0.00944676	-0.00218618	0
955.335	0.00935132	-0.00214696	0
975.335	0.00931314	-0.00213632	0
995.335	0.00937041	-0.0020778	0
1015.34	0.0093895	-0.00206131	0
1035.34	0.00935132	-0.00202463	0
1055.34	0.00937041	-0.00200604	0
1075.34	0.00927497	-0.00195083	0
1095.34	0.00937041	-0.00191263	0
1115.34	0.00942767	-0.00190066	0
1135.34	0.00929405	-0.00189346	0
1155.34	0.00927497	-0.00186996	0
1175.34	0.0093895	-0.0018401	0
1195.34	0.00942767	-0.00181329	0
1215.34	0.00942767	-0.00180839	0
1235.34	0.00927497	-0.00176674	0
1255.34	0.00935132	-0.00176159	0
1275.34	0.00944676	-0.00172071	0
1295.34	0.0093895	-0.00170441	0
1315.34	0.00925588	-0.00169734	0
1335.34	0.00929405	-0.00166601	0
1355.34	0.00935132	-0.00165455	0
1375.34	0.00931314	-0.00164092	0
1395.34	0.0093895	-0.00160163	0
1415.34	0.00935132	-0.00159533	0
1435.34	0.0093895	-0.00156419	0
1455.34	0.00940858	-0.00157062	0
1475.34	0.00929405	-0.0015598	0
1495.34	0.00929405	-0.00154025	0
1515.34	0.00940858	-0.00150835	0
1535.34	0.00933223	-0.00148905	0
1555.34	0.00933223	-0.00148154	0
1575.34	0.00933223	-0.00148275	0
1595.34	0.00933223	-0.00148765	0
1615.34	0.00937041	-0.00146536	0
1635.34	0.00931314	-0.00145301	0
1655.34	0.00935132	-0.00143302	0
1675.34	0.00946585	-0.00142964	0
1695.34	0.00935132	-0.00140952	0
1715.34	0.00946585	-0.00140895	0
1735.34	0.00929405	-0.00137361	0
1755.34	0.00937041	-0.00136336	0
1775.34	0.0093895	-0.00137615	0
1795.34	0.00940858	-0.00133432	0
1815.34	0.00935132	-0.00134565	0
1835.34	0.00940858	-0.00132133	0
1855.34	0.00931314	-0.00130853	0
1875.34	0.00933223	-0.00131171	0
1895.34	0.00944676	-0.00130611	0
1915.34	0.00937041	-0.00128631	0
1935.34	0.00925588	-0.00128446	0
1955.34	0.00927497	-0.00126765	0
1975.34	0.0093895	-0.00124466	0
1995.34	0.00942767	-0.0012374	0
2015.34	0.00927497	-0.00123148	0
2035.34	0.00933223	-0.00123263	0
2055.34	0.00933223	-0.00123339	0
2075.34	0.00935132	-0.00121448	0
2095.34	0.00937041	-0.0011985	0
2115.34	0.00931314	-0.00118443	0
2135.34	0.0093895	-0.00120225	0
2155.34	0.00933223	-0.00119137	0
2175.34	0.0093895	-0.00117978	0
2195.34	0.00946585	-0.00116074	0
2215.34	0.00931314	-0.00114705	0
2235.34	0.00931314	-0.00113699	0
2255.34	0.00935132	-0.00115762	0
2275.34	0.00931314	-0.00111827	0
2295.34	0.00944676	-0.00113005	0
2315.34	0.00931314	-0.00111788	0
2335.34	0.00940858	-0.00107898	0
2355.34	0.00937041	-0.00112699	0
2375.34	0.0093895	-0.00109394	0
2395.34	0.00925588	-0.00108152	0
2415.34	0.00937041	-0.00109343	0
2435.34	0.00927497	-0.001097	0
2455.34	0.00925588	-0.00109362	0
2475.34	0.00933223	-0.00106248	0
2495.34	0.0093895	-0.00107974	0
2515.34	0.00931314	-0.00104179	0
2535.34	0.00935132	-0.00105	0
2555.34	0.00931314	-0.00105726	0
2575.34	0.00931314	-0.00105943	0
2595.34	0.00942767	-0.00104166	0
2615.34	0.00942767	-0.00103237	0
2635.34	0.00931314	-0.00102161	0
2655.34	0.00940858	-0.00103931	0
2675.34	0.00933223	-0.00101632	0
2695.34	0.00937041	-0.00102046	0
2715.34	0.00925588	-0.000999127	0
2735.34	0.00935132	-0.00097977	0
2755.34	0.00937041	-0.00100129	0
2775.34	0.00933223	-0.000961367	0
2795.34	0.00940858	-0.000986519	0
2815.34	0.00933223	-0.000977031	0
2835.34	0.00946585	-0.000963214	0
2855.34	0.00929405	-0.000939144	0
2875.34	0.00940858	-0.000972765	0
2895.34	0.00942767	-0.000955955	0
2915.34	0.00931314	-0.000956591	0
2935.34	0.00931314	-0.000957801	0
2955.34	0.00935132	-0.000947167	0
2975.34	0.00937041	-0.0008982	0
2995.34	0.00935132	-0.000939271	0
3015.34	0.00923679	-0.000927428	0
3035.34	0.0093895	-0.000930739	0
3055.34	0.00929405	-0.000910426	0
3075.34	0.00929405	-0.000905841	0
3095.34	0.00931314	-0.00089075	0
3115.34	0.00933223	-0.000899537	0
3135.34	0.00931314	-0.000880562	0
3155.34	0.00937041	-0.000884701	0
3175.34	0.00933223	-0.000886102	0
3195.34	0.00927497	-0.000874449	0
3215.34	0.00929405	-0.000879352	0
3235.34	0.00935132	-0.000867126	0
3255.34	0.0093895	-0.000865089	0
3275.34	0.0093895	-0.000857002	0
3295.34	0.00933223	-0.000879097	0
3315.34	0.00929405	-0.000885911	0
3335.34	0.00935132	-0.000875913	0
3355.34	0.00944676	-0.000863114	0
3375.34	0.00931314	-0.0008549	0
3395.34	0.00929405	-0.000829239	0
3415.34	0.00931314	-0.000841592	0
3435.34	0.00944676	-0.000846113	0
3455.34	0.00933223	-0.00083879	0
3475.34	0.00952311	-0.000826819	0
3495.34	0.00942767	-0.00081593	0
3515.34	0.00935132	-0.000812237	0
3535.34	0.00927497	-0.000820643	0
3555.34	0.00917953	-0.000818414	0
3575.34	0.0092177	-0.00082319	0
3595.34	0.00933223	-0.000809372	0
3615.34	0.00927497	-0.000800967	0
3635.34	0.00931314	-0.000803577	0
3655.34	0.0093895	-0.000798228	0
3675.34	0.00927497	-0.000789632	0
3695.34	0.00931314	-0.000796191	0
3715.34	0.00919861	-0.000787276	0
3735.34	0.00935132	-0.000758303	0
3755.34	0.00927497	-0.000754738	0
3775.34	0.00925588	-0.000769065	0
3795.34	0.00927497	-0.000773204	0
3815.34	0.00927497	-0.000778807	0
3835.34	0.00923679	-0.000774477	0
3855.34	0.00946585	-0.000759386	0
3875.34	0.00931314	-0.000762251	0
3895.34	0.00927497	-0.000778871	0
3915.34	0.0093895	-0.000764416	0
3935.34	0.00937041	-0.000744167	0
3955.34	0.00931314	-0.000728312	0
3975.34	0.00935132	-0.000750153	0
3995.34	0.00931314	-0.000727229	0
4015.34	0.00933223	-0.000746014	0
4035.34	0.00933223	-0.000730986	0
4055.34	0.00929405	-0.000728121	0
4075.34	0.00937041	-0.000710865	0
4095.34	0.00929405	-0.000717423	0
4115.34	0.00919861	-0.000713157	0
4135.34	0.00937041	-0.000722772	0
4155.34	0.00925588	-0.000693672	0
4175.34	0.00940858	-0.000717551	0
4195.34	0.00929405	-0.000717041	0
4215.34	0.00933223	-0.000687241	0
4235.34	0.00933223	-0.000692462	0
4255.34	0.00925588	-0.000707681	0
4275.34	0.00927497	-0.000690042	0
4295.34	0.0093895	-0.000688196	0
4315.34	0.00935132	-0.000699976	0
4335.34	0.00923679	-0.000687113	0
4355.34	0.00933223	-0.000711692	0
4375.34	0.00925588	-0.000691953	0
4395.34	0.00933223	-0.000689915	0
4415.34	0.00933223	-0.000683802	0
4435.34	0.00929405	-0.000675461	0
4455.34	0.00929405	-0.000685076	0
4475.34	0.00937041	-0.000679854	0
4495.34	0.00927497	-0.000672914	0
4515.34	0.00940858	-0.000651136	0
4535.34	0.00940858	-0.000686349	0
4555.34	0.00927497	-0.000662662	0
4575.34	0.00925588	-0.000666355	0
4595.34	0.00919861	-0.00066177	0
4615.34	0.00929405	-0.000670621	0
4635.34	0.00931314	-0.00065674	0
4655.34	0.00927497	-0.000654638	0
4675.34	0.00937041	-0.000655466	0
4695.34	0.00933223	-0.000646106	0
4715.34	0.00942767	-0.000638274	0
4735.34	0.00940858	-0.00063821	0
4755.34	0.00935132	-0.000663235	0
4775.34	0.00929405	-0.000652537	0
4795.34	0.00935132	-0.000636363	0
4815.34	0.00929405	-0.000632543	0
4835.34	0.00940858	-0.000623819	0
4855.34	0.00923679	-0.00063076	0
4875.34	0.00933223	-0.000627576	0
4895.34	0.00933223	-0.000629168	0
4915.34	0.00935132	-0.000614013	0
4935.34	0.00931314	-0.000623692	0
4955.34	0.00931314	-0.0006079	0
4975.34	0.00929405	-0.000621145	0
4995.34	0.00935132	-0.000601214	0
5015.34	0.0093895	-0.000609301	0
5035.34	0.00919861	-0.000604398	0
5055.34	0.00929405	-0.000603888	0
5075.34	0.00927497	-0.000614586	0
5095.34	0.00948494	-0.000603634	0
5115.34	0.00942767	-0.00060548	0
5135.34	0.0093895	-0.000610511	0
5155.34	0.00937041	-0.000602297	0
5175.34	0.00933223	-0.000603188	0
5195.34	0.00929405	-0.000602933	0
5215.34	0.0093895	-0.000604334	0
5235.34	0.00937041	-0.000601915	0
5255.34	0.00942767	-0.000599367	0
5275.34	0.00929405	-0.000598349	0
5295.34	0.00927497	-0.000586505	0
5315.34	0.0093895	-0.000602997	0
5335.34	0.00933223	-0.000593509	0
5355.34	0.00935132	-0.000576189	0
5375.34	0.00919861	-0.000596948	0
5395.34	0.00933223	-0.000575234	0
5415.34	0.00944676	-0.000554985	0
5435.34	0.00935132	-0.00059803	0
5455.34	0.00931314	-0.000590516	0
5475.34	0.00935132	-0.000555622	0
5495.34	0.00935132	-0.000583767	0
5515.34	0.00931314	-0.000587778	0
5535.34	0.00931314	-0.000582239	0
5555.34	0.00937041	-0.000579691	0
5575.34	0.00935132	-0.000565046	0
5595.34	0.00933223	-0.000551292	0
5615.34	0.00931314	-0.00054849	0
5635.34	0.00927497	-0.000550337	0
5655.34	0.00933223	-0.000567147	0
5675.34	0.00937041	-0.000557086	0
5695.34	0.00944676	-0.000573451	0
5715.34	0.00923679	-0.000562881	0
5735.34	0.00935132	-0.000564282	0
5755.34	0.00933223	-0.000568039	0
5775.34	0.00942767	-0.000553712	0
5795.34	0.00935132	-0.000558806	0
5815.34	0.00931314	-0.000543651	0
5835.34	0.00929405	-0.00056269	0
5855.34	0.00933223	-0.000563836	0
5875.34	0.00940858	-0.000558551	0
5895.34	0.00940858	-0.000543905	0
5915.34	0.00929405	-0.000544797	0
5935.34	0.00937041	-0.000531743	0
5955.34	0.00935132	-0.000535309	0
5975.34	0.0092177	-0.000543587	0
5995.34	0.00937041	-0.000532444	0
6015.34	0.00929405	-0.00052735	0
6035.34	0.00931314	-0.00054295	0
6055.34	0.0093895	-0.000517416	0
6075.34	0.00935132	-0.000513659	0
6095.34	0.00927497	-0.00050831	0
6115.34	0.00927497	-0.000552756	0
6135.34	0.00937041	-0.000531998	0
6155.34	0.00931314	-0.000528241	0
6175.34	0.00933223	-0.000527159	0
6195.34	0.00931314	-0.000523847	0
6215.34	0.00923679	-0.000499141	0
6235.34	0.00933223	-0.000515952	0
6255.34	0.00933223	-0.000533399	0
6275.34	0.00927497	-0.000531234	0
6295.34	0.00942767	-0.000530215	0
6315.34	0.00933223	-0.000528114	0
6335.34	0.0093895	-0.000528368	0
6355.34	0.00935132	-0.000507928	0
6375.34	0.0093895	-0.000517734	0
6395.34	0.0092177	-0.000493983	0
6415.34	0.00923679	-0.000509202	0
6435.34	0.00933223	-0.000493155	0
6455.34	0.00933223	-0.00050761	0
6475.34	0.00933223	-0.000538366	0
6495.34	0.00933223	-0.000501306	0
6515.34	0.00933223	-0.000510348	0
6535.34	0.00944676	-0.000494111	0
6555.34	0.0093895	-0.000503216	0
6575.34	0.00942767	-0.000462272	0
6595.34	0.00937041	-0.000498377	0
6615.34	0.00927497	-0.000494493	0
6635.34	0.00935132	-0.00048908	0
6655.34	0.00942767	-0.000492328	0
6675.34	0.00948494	-0.000502452	0
6695.34	0.00946585	-0.000486087	0
6715.34	0.00940858	-0.000489144	0
6735.34	0.00929405	-0.000499268	0
6755.34	0.00927497	-0.000491309	0
6775.34	0.00931314	-0.000476791	0
6795.34	0.00931314	-0.000507419	0
6815.34	0.0092177	-0.000467367	0
6835.34	0.00937041	-0.000488889	0
6855.34	0.00923679	-0.000478637	0
6875.34	0.00931314	-0.000497995	0
6895.34	0.00929405	-0.000497485	0
6915.34	0.00927497	-0.000495066	0
6935.34	0.00933223	-0.000479656	0
6955.34	0.00925588	-0.000485705	0
6975.34	0.00929405	-0.000493155	0
6995.34	0.00940858	-0.000474689	0
7015.34	0.00937041	-0.000473097	0
7035.34	0.00927497	-0.000495894	0
7055.34	0.00931314	-0.000473416	0
7075.34	0.00927497	-0.000474626	0
7095.34	0.00935132	-0.000484304	0
7115.34	0.00931314	-0.00049392	0
7135.34	0.00937041	-0.000459471	0
7155.34	0.00931314	-0.000460489	0
7175.34	0.00933223	-0.000484814	0
7195.34	0.00925588	-0.000466921	0
7215.34	0.00929405	-0.000457688	0
7235.34	0.0093895	-0.000503344	0
7255.34	0.00935132	-0.000477045	0
7275.34	0.00940858	-0.000447818	0
7295.34	0.00931314	-0.000465775	0
7315.34	0.00927497	-0.000456223	0
7335.34	0.00937041	-0.000471442	0
7355.34	0.00927497	-0.00045132	0
7375.34	0.00933223	-0.000469914	0
7395.34	0.00925588	-0.000469532	0
7415.34	0.00929405	-0.000441005	0
7435.34	0.00935132	-0.000457751	0
7455.34	0.00933223	-0.000458452	0
7475.34	0.0092177	-0.000456669	0
7495.34	0.00927497	-0.000467621	0
7515.34	0.0093895	-0.000453103	0
7535.34	0.00935132	-0.00045877	0
7555.34	0.00942767	-0.000458388	0
7575.34	0.00925588	-0.000431262	0
7595.34	0.00929405	-0.000453676	0
7615.34	0.00937041	-0.000443806	0
7635.34	0.00929405	-0.000452084	0
7655.34	0.00933223	-0.000438139	0
7675.34	0.00931314	-0.000431771	0
7695.34	0.00935132	-0.000423239	0
7715.34	0.00937041	-0.000456669	0
7735.34	0.00940858	-0.000435783	0
7755.34	0.00940858	-0.000425595	0
7775.34	0.00929405	-0.000409357	0
7795.34	0.00940858	-0.000439031	0
7815.34	0.00929405	-0.000450429	0
7835.34	0.00946585	-0.000440049	0
7855.34	0.00927497	-0.00044387	0
7875.34	0.00937041	-0.000434382	0
7895.34	0.00937041	-0.000439413	0
7915.34	0.00944676	-0.000432217	0
7935.34	0.00925588	-0.000432918	0
7955.34	0.0093895	-0.000439285	0
7975.34	0.00944676	-0.000438585	0
7995.34	0.00933223	-0.000434319	0
8015.34	0.0093895	-0.000455268	0
8035.34	0.00937041	-0.000431708	0
8055.34	0.00933223	-0.000422729	0
8075.34	0.00940858	-0.000426168	0
8095.34	0.00937041	-0.000431135	0
8115.34	0.00942767	-0.000428906	0
8135.34	0.00937041	-0.000423685	0
8155.34	0.00933223	-0.000407256	0
8175.34	0.00931314	-0.00041477	0
8195.34	0.00935132	-0.000443042	0
8215.34	0.00935132	-0.000427441	0
8235.34	0.00935132	-0.000420373	0
8255.34	0.0093895	-0.000387707	0
8275.34	0.00929405	-0.000447945	0
8295.34	0.0093895	-0.000427569	0
8315.34	0.00935132	-0.000427824	0
8335.34	0.00925588	-0.000411013	0
8355.34	0.00937041	-0.000440177	0
8375.34	0.00929405	-0.000413369	0
8395.34	0.00923679	-0.00042846	0
8415.34	0.00935132	-0.000432345	0
8435.34	0.00937041	-0.000415216	0
8455.34	0.00929405	-0.000423748	0
8475.34	0.00929405	-0.000418399	0
8495.34	0.00937041	-0.000426868	0
8515.34	0.00935132	-0.000425404	0
8535.34	0.00931314	-0.000417381	0
8555.34	0.00937041	-0.000423876	0
8575.34	0.00933223	-0.000409676	0
8595.34	0.00944676	-0.000423621	0
8615.34	0.00931314	-0.000399169	0
8635.34	0.00925588	-0.000392802	0
8655.34	0.00931314	-0.00040802	0
8675.34	0.00940858	-0.000413815	0
8695.34	0.00925588	-0.000414451	0
8715.34	0.00935132	-0.000401462	0
8735.34	0.00927497	-0.000400188	0
8755.34	0.0093895	-0.000411395	0
8775.34	0.00935132	-0.000397195	0
8795.34	0.00925588	-0.000420628	0
8815.34	0.0093895	-0.000407383	0
8835.34	0.00916044	-0.000400952	0
8855.34	0.0092177	-0.000396622	0
8875.34	0.00931314	-0.000426295	0
8895.34	0.0093895	-0.000426232	0
8915.34	0.00940858	-0.00039987	0
8935.34	0.00933223	-0.000397514	0
8955.34	0.0093895	-0.000401079	0
8975.34	0.00935132	-0.000379939	0
8995.34	0.00940858	-0.000403117	0
9015.34	0.00931314	-0.000398915	0
9035.34	0.00933223	-0.000399297	0
9055.34	0.00942767	-0.000397959	0
9075.34	0.00927497	-0.000390955	0
9095.34	0.00937041	-0.000396049	0
9115.34	0.00931314	-0.000396686	0
9135.34	0.00940858	-0.000378665	0
9155.34	0.00931314	-0.000392228	0
9175.34	0.00935132	-0.000391146	0
9195.34	0.00935132	-0.000388472	0
9215.34	0.00940858	-0.000386179	0
9235.34	0.00927497	-0.000393757	0
9255.34	0.00933223	-0.000372998	0
9275.34	0.00931314	-0.000385351	0
9295.34	0.00925588	-0.000407511	0
9315.34	0.0093895	-0.000379239	0
9335.34	0.00931314	-0.000406492	0
9355.34	0.00927497	-0.000393948	0
9375.34	0.0093895	-0.000380066	0
9395.34	0.00937041	-0.000396941	0
9415.34	0.00929405	-0.000392228	0
9435.34	0.00944676	-0.000387707	0
9455.34	0.00927497	-0.000378347	0
9475.34	0.00931314	-0.000377392	0
9495.34	0.00927497	-0.000373953	0
9515.34	0.00935132	-0.000395349	0
9535.34	0.00940858	-0.000388217	0
9555.34	0.00940858	-0.000392292	0
9575.34	0.0093895	-0.000372998	0
9595.34	0.00925588	-0.000393184	0
9615.34	0.00933223	-0.000384524	0
9635.34	0.00935132	-0.000382168	0
9655.34	0.00925588	-0.000365676	0
9675.34	0.00935132	-0.000370642	0
9695.34	0.00940858	-0.0003616	0
9715.34	0.00942767	-0.000400379	0
9735.34	0.00929405	-0.000390255	0
9755.34	0.00933223	-0.000407511	0
9775.34	0.0093895	-0.000362046	0
9795.34	0.00929405	-0.000363765	0
9815.34	0.00931314	-0.000365039	0
9835.34	0.00923679	-0.000377838	0
9855.34	0.00931314	-0.000384524	0
9875.34	0.00933223	-0.000369687	0
9895.34	0.00931314	-0.000358098	0
9915.34	0.0092177	-0.000374463	0
9935.34	0.00940858	-0.000363765	0
9955.34	0.00942767	-0.000368987	0
9975.34	0.00929405	-0.00038255	0
9995.34	0.00931314	-0.00038013	0
10015.3	0.00931314	-0.000343198	0
10035.3	0.00931314	-0.000368796	0
10055.3	0.00935132	-0.000362555	0
10075.3	0.00937041	-0.000384269	0
10095.3	0.0093895	-0.000392547	0
10115.3	0.0092177	-0.000375482	0
10135.3	0.00925588	-0.000385097	0
10155.3	0.00937041	-0.000388535	0
10175.3	0.00937041	-0.000363702	0
10195.3	0.00927497	-0.000364275	0
10215.3	0.00935132	-0.000393629	0
10235.3	0.00931314	-0.000363001	0
10255.3	0.00937041	-0.000379621	0
10275.3	0.00933223	-0.000383059	0
10295.3	0.00940858	-0.00035466	0
10315.3	0.00933223	-0.000368223	0
10335.3	0.00940858	-0.000378602	0
10355.3	0.00931314	-0.000367522	0
10375.3	0.00933223	-0.000359053	0
10395.3	0.00933223	-0.000347655	0
10415.3	0.00937041	-0.000361919	0
10435.3	0.00935132	-0.000371215	0
10455.3	0.00935132	-0.000341224	0
10475.3	0.00946585	-0.000356379	0
10495.3	0.00931314	-0.000364275	0
10515.3	0.00923679	-0.000339632	0
10535.3	0.00931314	-0.000361664	0
10555.3	0.00935132	-0.000352686	0
10575.3	0.0093895	-0.000369878	0
10595.3	0.00933223	-0.000351667	0
10615.3	0.00923679	-0.000342816	0
10635.3	0.00933223	-0.000341606	0
10655.3	0.00937041	-0.000368987	0
10675.3	0.00940858	-0.0003474	0
10695.3	0.00935132	-0.000357207	0
10715.3	0.00946585	-0.00035606	0
10735.3	0.00937041	-0.000371788	0
10755.3	0.00937041	-0.000358225	0
10775.3	0.00919861	-0.000330017	0
10795.3	0.00933223	-0.000325177	0
10815.3	0.00927497	-0.000330017	0
10835.3	0.00933223	-0.000364466	0
10855.3	0.00942767	-0.000339377	0
10875.3	0.00937041	-0.000357398	0
10895.3	0.00931314	-0.00032384	0
10915.3	0.00925588	-0.000321038	0
10935.3	0.00925588	-0.000352112	0
10955.3	0.00933223	-0.000350648	0
10975.3	0.00927497	-0.000349311	0
10995.3	0.00931314	-0.000330845	0
11015.3	0.00933223	-0.000342052	0
11035.3	0.00933223	-0.00035224	0
11055.3	0.0093895	-0.000350775	0
11075.3	0.00925588	-0.000346382	0
11095.3	0.00929405	-0.000344662	0
11115.3	0.00942767	-0.000359372	0
11135.3	0.00929405	-0.000351221	0
11155.3	0.00927497	-0.000339823	0
11175.3	0.00923679	-0.000336639	0
11195.3	0.00929405	-0.000346127	0
11215.3	0.00933223	-0.000359372	0
11235.3	0.00933223	-0.000336958	0
11255.3	0.0093895	-0.000326897	0
11275.3	0.00944676	-0.00035173	0
11295.3	0.00935132	-0.000324095	0
11315.3	0.00933223	-0.000336448	0
11335.3	0.00937041	-0.000322885	0
11355.3	0.00931314	-0.000334856	0
11375.3	0.00914135	-0.000353959	0
11395.3	0.00925588	-0.000334092	0
11415.3	0.00929405	-0.000345299	0
11435.3	0.00933223	-0.000328234	0
11455.3	0.00927497	-0.000354787	0
11475.3	0.00931314	-0.000343452	0
11495.3	0.00937041	-0.000356442	0
11515.3	0.00940858	-0.000339059	0
11535.3	0.00933223	-0.000310659	0
11555.3	0.00929405	-0.000317918	0
11575.3	0.00919861	-0.000331418	0
11595.3	0.00937041	-0.000332245	0
11615.3	0.00933223	-0.000317218	0
11635.3	0.00937041	-0.000338167	0
11655.3	0.00937041	-0.000355806	0
11675.3	0.00923679	-0.000310022	0
11695.3	0.00931314	-0.000328552	0
11715.3	0.00937041	-0.000312697	0
11735.3	0.0093895	-0.000338995	0
11755.3	0.00950403	-0.000333646	0
11775.3	0.00931314	-0.000335939	0
11795.3	0.00925588	-0.000352877	0
11815.3	0.00933223	-0.0003609	0
11835.3	0.00933223	-0.000347209	0
11855.3	0.0093895	-0.000327788	0
11875.3	0.00935132	-0.00035345	0
11895.3	0.00940858	-0.000326133	0
11915.3	0.00933223	-0.000318491	0
11935.3	0.00940858	-0.000337976	0
11955.3	0.00931314	-0.000327915	0
11975.3	0.00944676	-0.000342497	0
11995.3	0.00931314	-0.00033492	0
12015.3	0.0093895	-0.000316008	0
12035.3	0.00944676	-0.000337085	0
12055.3	0.0093895	-0.000336894	0
12075.3	0.00940858	-0.000339887	0
12095.3	0.00925588	-0.000334984	0
12115.3	0.00937041	-0.000339059	0
12135.3	0.00931314	-0.000322758	0
12155.3	0.00927497	-0.000322567	0
12175.3	0.00935132	-0.000327915	0
12195.3	0.00925588	-0.000330208	0
12215.3	0.00931314	-0.000325496	0
12235.3	0.00933223	-0.000330908	0
12255.3	0.00931314	-0.000315944	0
12275.3	0.00925588	-0.000318746	0
12295.3	0.00929405	-0.000324222	0
12315.3	0.00940858	-0.000324286	0
12335.3	0.00927497	-0.000314798	0
12355.3	0.0093895	-0.000324795	0
12375.3	0.00927497	-0.000323203	0
12395.3	0.0092177	-0.000327279	0
12415.3	0.00925588	-0.000325496	0
12435.3	0.00937041	-0.000309195	0
12455.3	0.00923679	-0.000335175	0
12475.3	0.00935132	-0.000301999	0
12495.3	0.00925588	-0.000334665	0
12515.3	0.00950403	-0.000329189	0
12535.3	0.0092177	-0.000311105	0
12555.3	0.0093895	-0.000324031	0
12575.3	0.00940858	-0.000356315	0
12595.3	0.00937041	-0.00029958	0
12615.3	0.00925588	-0.000338549	0
12635.3	0.00927497	-0.000312506	0
12655.3	0.00935132	-0.000286653	0
12675.3	0.00919861	-0.000310787	0
12695.3	0.00933223	-0.000318364	0
12715.3	0.00933223	-0.000302572	0
12735.3	0.00937041	-0.000314926	0
12755.3	0.00929405	-0.000327151	0
12775.3	0.0093895	-0.000317409	0
12795.3	0.00933223	-0.000316517	0
12815.3	0.00931314	-0.000302509	0
12835.3	0.00933223	-0.000315053	0
12855.3	0.00933223	-0.000316326	0
12875.3	0.00944676	-0.000316263	0
12895.3	0.00935132	-0.000313206	0
12915.3	0.00927497	-0.000308494	0
12935.3	0.00927497	-0.000321166	0
12955.3	0.00927497	-0.000334601	0
12975.3	0.00931314	-0.000304674	0
12995.3	0.00937041	-0.000311933	0
13015.3	0.00929405	-0.000321293	0
13035.3	0.00929405	-0.000323904	0
13055.3	0.00935132	-0.000325559	0
13075.3	0.00917953	-0.000313397	0
13095.3	0.00929405	-0.000292957	0
13115.3	0.00935132	-0.000310341	0
13135.3	0.00927497	-0.000324541	0
13155.3	0.00927497	-0.000325114	0
13175.3	0.00927497	-0.000293212	0
13195.3	0.00927497	-0.000284488	0
13215.3	0.00935132	-0.000311742	0
13235.3	0.00937041	-0.000317027	0
13255.3	0.00929405	-0.000314798	0
13275.3	0.00929405	-0.000306457	0
13295.3	0.00933223	-0.000280922	0
13315.3	0.0093895	-0.000316708	0
13335.3	0.00937041	-0.000284297	0
13355.3	0.00937041	-0.000297478	0
13375.3	0.00931314	-0.000329762	0
13395.3	0.00931314	-0.000298433	0
13415.3	0.00925588	-0.000306138	0
13435.3	0.00937041	-0.000302954	0
13455.3	0.00935132	-0.000289328	0
13475.3	0.00931314	-0.000312124	0
13495.3	0.00927497	-0.000293276	0
13515.3	0.00942767	-0.00029474	0
13535.3	0.00937041	-0.000321229	0
13555.3	0.00929405	-0.000288627	0
13575.3	0.00929405	-0.00031327	0
13595.3	0.00929405	-0.000301235	0
13615.3	0.00925588	-0.000312506	0
13635.3	0.0093895	-0.000302891	0
13655.3	0.00935132	-0.000316199	0
13675.3	0.00931314	-0.000290729	0
13695.3	0.00929405	-0.000299962	0
13715.3	0.0093895	-0.000305565	0
13735.3	0.00933223	-0.000323522	0
13755.3	0.00935132	-0.00029665	0
13775.3	0.00946585	-0.000314161	0
13795.3	0.00923679	-0.000291302	0
13815.3	0.00940858	-0.000310596	0
13835.3	0.00931314	-0.000312251	0
13855.3	0.00933223	-0.000297542	0
13875.3	0.00937041	-0.000309831	0
13895.3	0.00937041	-0.000302318	0
13915.3	0.00933223	-0.000284616	0
13935.3	0.00940858	-0.000290155	0
13955.3	0.00931314	-0.000319001	0
13975.3	0.00942767	-0.000288627	0
13995.3	0.00933223	-0.000295377	0
14015.3	0.00925588	-0.000298306	0
14035.3	0.00935132	-0.000303145	0
14055.3	0.00937041	-0.000307348	0
14075.3	0.00935132	-0.000289455	0
14095.3	0.00925588	-0.000310787	0
14115.3	0.00942767	-0.00029958	0
14135.3	0.00927497	-0.000313461	0
14155.3	0.00927497	-0.00031518	0
14175.3	0.00925588	-0.000291556	0
14195.3	0.00937041	-0.000302509	0
14215.3	0.00925588	-0.000279713	0
14235.3	0.00931314	-0.000314862	0
14255.3	0.00931314	-0.000312315	0
14275.3	0.00923679	-0.000317409	0
14295.3	0.00923679	-0.000316135	0
14315.3	0.00927497	-0.000308876	0
14335.3	0.00931314	-0.00029474	0
14355.3	0.00937041	-0.000290283	0
14375.3	0.0093895	-0.000306329	0
14395.3	0.00929405	-0.000299006	0
14415.3	0.00931314	-0.000296714	0
14435.3	0.00935132	-0.000290283	0
14455.3	0.00931314	-0.000302127	0
14475.3	0.0093895	-0.000289646	0
14495.3	0.00933223	-0.000293148	0
14515.3	0.00933223	-0.000302636	0
14535.3	0.00929405	-0.000310978	0
14555.3	0.00927497	-0.000292639	0
14575.3	0.00935132	-0.000293148	0
14595.3	0.00937041	-0.000303527	0
14615.3	0.00937041	-0.000284425	0
14635.3	0.00931314	-0.000292894	0
14655.3	0.00933223	-0.000265895	0
14675.3	0.00937041	-0.000281304	0
14695.3	0.00942767	-0.000267741	0
14715.3	0.0093895	-0.000299006	0
14735.3	0.0093895	-0.000286717	0
14755.3	0.00935132	-0.000296459	0
14775.3	0.0093895	-0.000275765	0
14795.3	0.00933223	-0.000292894	0
14815.3	0.00925588	-0.000292894	0
14835.3	0.00935132	-0.000279776	0
14855.3	0.00931314	-0.000314926	0
14875.3	0.00940858	-0.000275	0
14895.3	0.00931314	-0.000279012	0
14915.3	0.00931314	-0.000285125	0
14935.3	0.00927497	-0.000297478	0
14955.3	0.00937041	-0.000294995	0
14975.3	0.00933223	-0.000301872	0
14995.3	0.00940858	-0.000273791	0
15015.3	0.00929405	-0.000282833	0
15035.3	0.00940858	-0.00029283	0
15055.3	0.00927497	-0.000288564	0
15075.3	0.00933223	-0.000282578	0
15095.3	0.00931314	-0.00029041	0
15115.3	0.00937041	-0.000292066	0
15135.3	0.0093895	-0.000261055	0
15155.3	0.00917953	-0.000302891	0
15175.3	0.00933223	-0.000282451	0
15195.3	0.00935132	-0.000272963	0
15215.3	0.00937041	-0.000266468	0
15235.3	0.00927497	-0.000303655	0
15255.3	0.00933223	-0.000291493	0
15275.3	0.00935132	-0.000287799	0
15295.3	0.0093895	-0.000293594	0
15315.3	0.0093895	-0.000268697	0
15335.3	0.00927497	-0.00026997	0
15355.3	0.00935132	-0.000296714	0
15375.3	0.00940858	-0.000284297	0
15395.3	0.00931314	-0.000272326	0
15415.3	0.00935132	-0.000293467	0
15435.3	0.00933223	-0.000276974	0
15455.3	0.00927497	-0.000286844	0
15475.3	0.00929405	-0.000286717	0
15495.3	0.00942767	-0.000292894	0
15515.3	0.00931314	-0.000289455	0
15535.3	0.00940858	-0.000292511	0
15555.3	0.00925588	-0.000298879	0
15575.3	0.0093895	-0.000249594	0
15595.3	0.00933223	-0.000276656	0
15615.3	0.00925588	-0.000262775	0
15635.3	0.00929405	-0.000299771	0
15655.3	0.00929405	-0.000261947	0
15675.3	0.00931314	-0.000285571	0
15695.3	0.00935132	-0.000273027	0
15715.3	0.00935132	-0.000275319	0
15735.3	0.00933223	-0.000266277	0
15755.3	0.00933223	-0.000276338	0
15775.3	0.00931314	-0.000266022	0
15795.3	0.00931314	-0.000269588	0
15815.3	0.00933223	-0.000253542	0
15835.3	0.00935132	-0.000267168	0
15855.3	0.00937041	-0.000279076	0
15875.3	0.00933223	-0.000283979	0
15895.3	0.00933223	-0.000272644	0
15915.3	0.00940858	-0.000288309	0
15935.3	0.00919861	-0.000287863	0
15955.3	0.00931314	-0.000260228	0
15975.3	0.00937041	-0.000292066	0
15995.3	0.00940858	-0.000292193	0
16015.3	0.00944676	-0.000256407	0
16035.3	0.00937041	-0.000271944	0
16055.3	0.0093895	-0.000272644	0
16075.3	0.00933223	-0.000264494	0
16095.3	0.00925588	-0.000274809	0
16115.3	0.00940858	-0.000258063	0
16135.3	0.00935132	-0.000283087	0
16155.3	0.00933223	-0.000296332	0
16175.3	0.0093895	-0.000273918	0
16195.3	0.00937041	-0.000249339	0
16215.3	0.0093895	-0.000262838	0
16235.3	0.00929405	-0.000283724	0
16255.3	0.0093895	-0.000276083	0
16275.3	0.00942767	-0.000247429	0
16295.3	0.0093895	-0.000281686	0
16315.3	0.00927497	-0.000265194	0
16335.3	0.00935132	-0.00026755	0
16355.3	0.00929405	-0.000260801	0
16375.3	0.00917953	-0.000280795	0
16395.3	0.0093895	-0.000270862	0
16415.3	0.0093895	-0.000272135	0
16435.3	0.00940858	-0.000270925	0
16455.3	0.0093895	-0.000254242	0
16475.3	0.00937041	-0.000256598	0
16495.3	0.0092177	-0.000254306	0
16515.3	0.00935132	-0.000276529	0
16535.3	0.00937041	-0.000282196	0
16555.3	0.00942767	-0.000264239	0
16575.3	0.00925588	-0.000258126	0
16595.3	0.00933223	-0.000286208	0
16615.3	0.00937041	-0.00027621	0
16635.3	0.00931314	-0.000267741	0
16655.3	0.0093895	-0.000281177	0
16675.3	0.00940858	-0.000265576	0
16695.3	0.00942767	-0.000281113	0
16715.3	0.00925588	-0.000273472	0
16735.3	0.00937041	-0.000273791	0
16755.3	0.00948494	-0.000274173	0
16775.3	0.00935132	-0.000277293	0
16795.3	0.00933223	-0.000277484	0
16815.3	0.00942767	-0.000271053	0
16835.3	0.00942767	-0.000270607	0
16855.3	0.00937041	-0.000273154	0
16875.3	0.00933223	-0.000259718	0
16895.3	0.00927497	-0.000250931	0
16915.3	0.00937041	-0.000276274	0
16935.3	0.00935132	-0.000278821	0
16955.3	0.00946585	-0.000257935	0
16975.3	0.00929405	-0.000268951	0
16995.3	0.00948494	-0.000249148	0
17015.3	0.00931314	-0.000277229	0
17035.3	0.00935132	-0.000258699	0
17055.3	0.0093895	-0.000263984	0
17075.3	0.00925588	-0.000251568	0
17095.3	0.00935132	-0.000244627	0
17115.3	0.00933223	-0.000270989	0
17135.3	0.00927497	-0.000268378	0
17155.3	0.00937041	-0.000256343	0
17175.3	0.00935132	-0.00027793	0
17195.3	0.00927497	-0.000270734	0
17215.3	0.00925588	-0.000258508	0
17235.3	0.00942767	-0.000269652	0
17255.3	0.0093895	-0.000272326	0
17275.3	0.00927497	-0.000258254	0
17295.3	0.00935132	-0.000273918	0
17315.3	0.00933223	-0.00027118	0
17335.3	0.00942767	-0.000269906	0
17355.3	0.00917953	-0.000261819	0
17375.3	0.00937041	-0.000276592	0
17395.3	0.00937041	-0.000254751	0
17415.3	0.00929405	-0.000276592	0
17435.3	0.00931314	-0.000273791	0
17455.3	0.0093895	-0.000255707	0
17475.3	0.00923679	-0.000252586	0
17495.3	0.00944676	-0.000275128	0
17515.3	0.00925588	-0.000247747	0
17535.3	0.00933223	-0.000282323	0
17555.3	0.00935132	-0.000267232	0
17575.3	0.00942767	-0.000265258	0
17595.3	0.00929405	-0.000272899	0
17615.3	0.00931314	-0.000244563	0
17635.3	0.00940858	-0.000260928	0
17655.3	0.00929405	-0.000245264	0
17675.3	0.00935132	-0.000270671	0
17695.3	0.00940858	-0.000249912	0
17715.3	0.00935132	-0.00026443	0
17735.3	0.00942767	-0.000255324	0
17755.3	0.00931314	-0.000249721	0
17775.3	0.00942767	-0.000247874	0
17795.3	0.00923679	-0.000258126	0
17815.3	0.00933223	-0.000261565	0
17835.3	0.00937041	-0.00024883	0
17855.3	0.00937041	-0.000265958	0
17875.3	0.00933223	-0.000254115	0
17895.3	0.00935132	-0.000276847	0
17915.3	0.00931314	-0.000251122	0
17935.3	0.00935132	-0.000248384	0
17955.3	0.00929405	-0.000253924	0
17975.3	0.0093895	-0.000263921	0
17995.3	0.00935132	-0.000246091	0
18015.3	0.00950403	-0.000257681	0
18035.3	0.00931314	-0.000260164	0
18055.3	0.0093895	-0.000249275	0
18060.1	0.00944676	-0.000257553	0