File: EXPERIMENTAL/DATA/month-old_I-cell_passivation/2024-06-11_Exploration-measurement-moth-old-I-cells/2024-06-11_month-old-I-cell_built-2024-05-16-old-OCV-2.2V_deltaX-110.0mm_02_MB_C04.txt
time/s	Ewe/V	I/mA	error
60.053	2.48877	-0.0250249	0
60.1442	0.00936545	-10.2061	0
60.1462	0.00934635	-10.0968	0
60.1482	0.00940363	-9.98876	0
60.1502	0.00930818	-9.8837	0
60.1522	0.00936545	-9.78124	0
60.1544	0.00940363	-9.67083	0
60.1568	0.00938454	-9.55202	0
60.1592	0.00930818	-9.43773	0
60.1616	0.00944181	-9.32484	0
60.164	0.00930818	-9.21373	0
60.1664	0.00951817	-9.10625	0
60.1688	0.0094609	-9.00048	0
60.1712	0.00947999	-8.89784	0
60.1736	0.00938454	-8.79665	0
60.1762	0.00940363	-8.68905	0
60.179	0.00930818	-8.57723	0
60.1818	0.00936545	-8.46714	0
60.1846	0.00923181	-8.35966	0
60.1874	0.00942272	-8.25511	0
60.1902	0.00932727	-8.1524	0
60.1932	0.00940363	-8.04542	0
60.1964	0.00936545	-7.93342	0
60.1996	0.00936545	-7.82416	0
60.2028	0.00940363	-7.71826	0
60.206	0.00934635	-7.61339	0
60.2092	0.00944181	-7.51234	0
60.2128	0.00934635	-7.40091	0
60.2164	0.00942272	-7.29177	0
60.22	0.00934635	-7.18499	0
60.2236	0.00942272	-7.08177	0
60.2272	0.00936545	-6.97995	0
60.2312	0.00930818	-6.8698	0
60.2352	0.00938454	-6.76187	0
60.2392	0.00938454	-6.65649	0
60.2432	0.00936545	-6.5532	0
60.2474	0.00942272	-6.44769	0
60.2518	0.00942272	-6.33977	0
60.2562	0.00942272	-6.23381	0
60.2606	0.00934635	-6.1304	0
60.265	0.00936545	-6.0282	0
60.2696	0.00944181	-5.92409	0
60.2744	0.00940363	-5.81833	0
60.2792	0.00944181	-5.71403	0
60.284	0.0094609	-5.6117	0
60.2892	0.00930818	-5.50447	0
60.2944	0.00944181	-5.39991	0
60.2996	0.00940363	-5.29701	0
60.305	0.0092509	-5.19348	0
60.3106	0.00944181	-5.08828	0
60.3162	0.00936545	-4.98678	0
60.322	0.00936545	-4.88503	0
60.328	0.00938454	-4.78149	0
60.3342	0.00942272	-4.67916	0
60.3406	0.00936545	-4.57652	0
60.3474	0.00942272	-4.47234	0
60.3542	0.0094609	-4.3704	0
60.3614	0.00942272	-4.26775	0
60.369	0.00940363	-4.16364	0
60.377	0.00942272	-4.05883	0
60.3852	0.00940363	-3.95555	0
60.3938	0.00936545	-3.85271	0
60.4028	0.00934635	-3.74828	0
60.412	0.00934635	-3.64818	0
60.4218	0.0094609	-3.54643	0
60.4322	0.00938454	-3.44531	0
60.443	0.00936545	-3.34375	0
60.4548	0.00947999	-3.24104	0
60.467	0.00944181	-3.13941	0
60.48	0.00942272	-3.03905	0
60.494	0.00936545	-2.93653	0
60.5088	0.00947999	-2.83471	0
60.5248	0.00932727	-2.7336	0
60.5418	0.00944181	-2.63292	0
60.5604	0.00936545	-2.53123	0
60.5806	0.00942272	-2.42916	0
60.6024	0.00938454	-2.32689	0
60.626	0.00942272	-2.22641	0
60.6524	0.00940363	-2.12415	0
60.6816	0.00942272	-2.02176	0
60.714	0.00934635	-1.92038	0
60.7506	0.00942272	-1.81869	0
60.7916	0.00940363	-1.71763	0
60.8382	0.00938454	-1.61703	0
60.8916	0.00942272	-1.51686	0
60.954	0.00932727	-1.41581	0
61.0282	0.00934635	-1.31494	0
61.115	0.00944181	-1.21452	0
61.2198	0.00938454	-1.11423	0
61.3466	0.00942272	-1.01407	0
61.5044	0.00940363	-0.91333	0
61.7026	0.00942272	-0.812974	0
61.9618	0.00942272	-0.712683	0
62.3204	0.00926999	-0.6122	0
62.8512	0.00936545	-0.511972	0
63.7362	0.00940363	-0.411664	0
65.4954	0.00930818	-0.311494	0
70.3402	0.00932727	-0.211451	0
87.054	0.00938454	-0.127634	0
107.054	0.00942272	-0.0942605	0
127.054	0.00942272	-0.0760119	0
147.054	0.00944181	-0.0641961	0
167.054	0.00934635	-0.055759	0
187.054	0.00938454	-0.0499497	0
207.054	0.00930818	-0.0452476	0
227.054	0.00934635	-0.041282	0
247.054	0.0094609	-0.0383001	0
267.054	0.00934635	-0.0356382	0
287.054	0.00938454	-0.0335068	0
307.054	0.00940363	-0.0316326	0
327.054	0.00932727	-0.02996	0
347.054	0.00942272	-0.0285514	0
367.054	0.00938454	-0.0272293	0
387.054	0.00936545	-0.0260275	0
407.054	0.00944181	-0.0250541	0
427.054	0.00938454	-0.0240445	0
447.054	0.00940363	-0.0231391	0
467.054	0.00940363	-0.0223471	0
487.054	0.00944181	-0.0215264	0
507.054	0.0094609	-0.0208093	0
527.054	0.00942272	-0.0201999	0
547.054	0.00938454	-0.0196171	0
567.054	0.00938454	-0.0190254	0
587.054	0.00934635	-0.0184286	0
607.054	0.00934635	-0.0178599	0
627.054	0.00928908	-0.0173706	0
647.054	0.00936545	-0.0169049	0
667.054	0.00940363	-0.0163953	0
687.054	0.00940363	-0.0160568	0
707.054	0.00938454	-0.0156439	0
727.054	0.00938454	-0.0153106	0
747.054	0.00944181	-0.0148512	0
767.054	0.00940363	-0.014507	0
787.054	0.00936545	-0.0141991	0
807.054	0.00936545	-0.0138307	0
827.054	0.00938454	-0.0135387	0
847.054	0.00940363	-0.0131926	0
867.054	0.00934635	-0.0129738	0
887.054	0.0092509	-0.0127263	0
907.054	0.00926999	-0.0124406	0
927.054	0.00934635	-0.0122447	0
947.054	0.00940363	-0.011875	0
967.054	0.00934635	-0.0116835	0
987.054	0.00938454	-0.0115054	0
1007.05	0.00938454	-0.0113425	0
1027.05	0.00932727	-0.0110989	0
1047.05	0.00949908	-0.0108119	0
1067.05	0.00934635	-0.0106732	0
1087.05	0.00938454	-0.0104467	0
1107.05	0.00934635	-0.0103195	0
1127.05	0.00934635	-0.0100656	0
1147.05	0.00938454	-0.00986587	0
1167.05	0.00936545	-0.00974436	0
1187.05	0.00926999	-0.00952295	0
1207.05	0.00942272	-0.00946951	0
1227.05	0.00934635	-0.00926529	0
1247.05	0.00934635	-0.00910878	0
1267.05	0.00928908	-0.00894973	0
1287.05	0.00926999	-0.00879704	0
1307.05	0.00938454	-0.00870351	0
1327.05	0.00926999	-0.00850502	0
1347.05	0.00938454	-0.0083307	0
1367.05	0.00940363	-0.00825308	0
1387.05	0.00936545	-0.00811502	0
1407.05	0.00928908	-0.0079407	0
1427.05	0.00936545	-0.00785735	0
1447.05	0.00938454	-0.00776192	0
1467.05	0.00928908	-0.00754816	0
1487.05	0.00942272	-0.00750108	0
1507.05	0.00940363	-0.00737383	0
1527.05	0.00926999	-0.00731403	0
1547.05	0.00942272	-0.00708372	0
1567.05	0.00944181	-0.00704173	0
1587.05	0.0094609	-0.00700038	0
1607.05	0.00932727	-0.00681524	0
1627.05	0.00944181	-0.00675162	0
1647.05	0.00930818	-0.00665937	0
1667.05	0.00936545	-0.00653849	0
1687.05	0.00938454	-0.00644433	0
1707.05	0.00934635	-0.00635399	0
1727.05	0.00934635	-0.00631072	0
1747.05	0.00942272	-0.00623056	0
1767.05	0.00942272	-0.00612431	0
1787.05	0.00938454	-0.00603143	0
1807.05	0.00938454	-0.005908	0
1827.05	0.00926999	-0.00584693	0
1847.05	0.00938454	-0.0057445	0
1867.05	0.00934635	-0.00566879	0
1887.05	0.00926999	-0.00561725	0
1907.05	0.00942272	-0.00554791	0
1927.05	0.00936545	-0.00551292	0
1947.05	0.00936545	-0.00542257	0
1967.05	0.00942272	-0.00535386	0
1987.05	0.0094609	-0.00530996	0
2007.05	0.00938454	-0.00519417	0
2027.05	0.00936545	-0.00513882	0
2047.05	0.00938454	-0.00504021	0
2067.05	0.00926999	-0.0049944	0
2087.05	0.00932727	-0.00500585	0
2107.05	0.00938454	-0.0048907	0
2127.05	0.00932727	-0.00483471	0
2147.05	0.00932727	-0.00477555	0
2167.05	0.00938454	-0.0046922	0
2187.05	0.00934635	-0.00464958	0
2207.05	0.00940363	-0.00471129	0
2227.05	0.00936545	-0.00457959	0
2247.05	0.00942272	-0.00450292	0
2267.05	0.00936545	-0.0044569	0
2287.05	0.00936545	-0.00439553	0
2307.05	0.00934635	-0.00435918	0
2327.05	0.00940363	-0.00430406	0
2347.05	0.00942272	-0.00425561	0
2367.05	0.00940363	-0.00422633	0
2387.05	0.00928908	-0.00418648	0
2407.05	0.00936545	-0.00412607	0
2427.05	0.00938454	-0.00410341	0
2447.05	0.00936545	-0.00402409	0
2467.05	0.00936545	-0.00396744	0
2487.05	0.00944181	-0.00395184	0
2507.05	0.00940363	-0.00391288	0
2527.05	0.00944181	-0.00386107	0
2547.05	0.00928908	-0.00384413	0
2567.05	0.00938454	-0.00379786	0
2587.05	0.00944181	-0.00375813	0
2607.05	0.00940363	-0.00371956	0
2627.05	0.00940363	-0.00369066	0
2647.05	0.00938454	-0.0036305	0
2667.05	0.0094609	-0.00361446	0
2687.05	0.00940363	-0.00358575	0
2707.05	0.00942272	-0.00352649	0
2727.05	0.00940363	-0.00348937	0
2747.05	0.00934635	-0.00346054	0
2767.05	0.00936545	-0.00343851	0
2787.05	0.00932727	-0.00340395	0
2807.05	0.00934635	-0.00336327	0
2827.05	0.00940363	-0.00336874	0
2847.05	0.00940363	-0.00331667	0
2867.05	0.00938454	-0.00327122	0
2887.05	0.00938454	-0.00325422	0
2907.05	0.00938454	-0.00321539	0
2927.05	0.00936545	-0.00322106	0
2947.05	0.00932727	-0.00317313	0
2967.05	0.00942272	-0.00314187	0
2987.05	0.00949908	-0.00311602	0
3007.05	0.00926999	-0.00309438	0
3027.05	0.00942272	-0.00307363	0
3047.05	0.00936545	-0.00304193	0
3067.05	0.00932727	-0.00301328	0
3087.05	0.00942272	-0.00300653	0
3107.05	0.00940363	-0.00295071	0
3127.05	0.00932727	-0.00292015	0
3147.05	0.00932727	-0.00291697	0
3167.05	0.00936545	-0.00289698	0
3187.05	0.00930818	-0.00284981	0
3207.05	0.00947999	-0.00284828	0
3227.05	0.00928908	-0.0028211	0
3247.05	0.00953726	-0.00281601	0
3267.05	0.00938454	-0.00277368	0
3287.05	0.0094609	-0.00274198	0
3307.05	0.00940363	-0.00271683	0
3327.05	0.00940363	-0.00272912	0
3347.05	0.00932727	-0.00266349	0
3367.05	0.00938454	-0.00266011	0
3387.05	0.00938454	-0.00264439	0
3407.05	0.00934635	-0.00264114	0
3427.05	0.00940363	-0.00261625	0
3447.05	0.00934635	-0.00257023	0
3467.05	0.00934635	-0.00256119	0
3487.05	0.00938454	-0.00254082	0
3507.05	0.00940363	-0.00254731	0
3527.05	0.00938454	-0.00250963	0
3547.05	0.00947999	-0.00251784	0
3567.05	0.00938454	-0.00247506	0
3587.05	0.00942272	-0.00246322	0
3607.05	0.00949908	-0.00244101	0
3627.05	0.00940363	-0.00242267	0
3647.05	0.00930818	-0.00240358	0
3667.05	0.00940363	-0.00237659	0
3687.05	0.00928908	-0.00239587	0
3707.05	0.00928908	-0.00235431	0
3727.05	0.00934635	-0.0023326	0
3747.05	0.00942272	-0.00233699	0
3767.05	0.00936545	-0.00231719	0
3787.05	0.00936545	-0.00230561	0
3807.05	0.00934635	-0.00229943	0
3827.05	0.00932727	-0.00227282	0
3847.05	0.00934635	-0.00224978	0
3867.05	0.00932727	-0.00223068	0
3887.05	0.00938454	-0.00221426	0
3907.05	0.00944181	-0.00222273	0
3927.05	0.00940363	-0.00220185	0
3947.05	0.00940363	-0.00215149	0
3967.05	0.00938454	-0.00216881	0
3987.05	0.00940363	-0.00212794	0
4007.05	0.00928908	-0.00213373	0
4027.05	0.00940363	-0.00212081	0
4047.05	0.00940363	-0.0021056	0
4067.05	0.00940363	-0.00208122	0
4087.05	0.00938454	-0.00210464	0
4107.05	0.00934635	-0.0020739	0
4127.05	0.00938454	-0.00203959	0
4147.05	0.00926999	-0.00204137	0
4167.05	0.00942272	-0.00203793	0
4187.05	0.00934635	-0.0020371	0
4207.05	0.0094609	-0.00199413	0
4227.05	0.00944181	-0.00198815	0
4247.05	0.00942272	-0.00198433	0
4267.05	0.00942272	-0.00196345	0
4287.05	0.00934635	-0.00194416	0
4307.05	0.00934635	-0.00196339	0
4327.05	0.00938454	-0.00195779	0
4347.05	0.00932727	-0.00193621	0
4367.05	0.00930818	-0.00193461	0
4387.05	0.00947999	-0.00192258	0
4407.05	0.00942272	-0.0019138	0
4427.05	0.00932727	-0.00188363	0
4447.05	0.00930818	-0.00186739	0
4467.05	0.00942272	-0.0018686	0
4487.05	0.00923181	-0.00187147	0
4507.05	0.00936545	-0.001849	0
4527.05	0.00934635	-0.00182926	0
4547.05	0.00936545	-0.00182589	0
4567.05	0.00934635	-0.0018178	0
4587.05	0.00932727	-0.00181914	0
4607.05	0.00938454	-0.00176656	0
4627.05	0.00940363	-0.00177146	0
4647.05	0.00940363	-0.00177426	0
4667.05	0.00936545	-0.0017777	0
4687.05	0.00936545	-0.00175758	0
4707.05	0.00944181	-0.00173435	0
4727.05	0.00928908	-0.00172779	0
4747.05	0.00936545	-0.00172958	0
4767.05	0.00930818	-0.00170551	0
4787.05	0.00926999	-0.00172028	0
4807.05	0.00936545	-0.00171742	0
4827.05	0.00944181	-0.00169908	0
4847.05	0.00934635	-0.00166796	0
4867.05	0.00934635	-0.00168107	0
4887.05	0.00942272	-0.00166025	0
4907.05	0.00932727	-0.00166057	0
4927.05	0.00938454	-0.00165242	0
4947.05	0.0094609	-0.00164606	0
4967.05	0.00944181	-0.001643	0
4987.05	0.00934635	-0.00161958	0
5007.05	0.00934635	-0.00163982	0
5027.05	0.00944181	-0.00160366	0
5047.05	0.00942272	-0.00161378	0
5067.05	0.00944181	-0.00159787	0
5087.05	0.00938454	-0.00160646	0
5107.05	0.00938454	-0.00157782	0
5127.05	0.00942272	-0.00157495	0
5147.05	0.00930818	-0.00157877	0
5167.05	0.00936545	-0.001557	0
5187.05	0.00944181	-0.00153676	0
5207.05	0.0094609	-0.00155229	0
5227.05	0.00934635	-0.00153358	0
5247.05	0.00932727	-0.00154236	0
5267.05	0.0094609	-0.00154242	0
5287.05	0.00940363	-0.00151722	0
5307.05	0.00951817	-0.00151403	0
5327.05	0.00936545	-0.0015148	0
5347.05	0.00940363	-0.00150525	0
5367.05	0.00936545	-0.0015048	0
5387.05	0.00942272	-0.00148437	0
5407.05	0.00936545	-0.00148399	0
5427.05	0.00940363	-0.00147991	0
5447.05	0.00944181	-0.00146495	0
5467.05	0.00942272	-0.00146164	0
5487.05	0.0094609	-0.00147361	0
5507.05	0.00942272	-0.00144235	0
5527.05	0.00938454	-0.00141466	0
5547.05	0.00934635	-0.00143459	0
5567.05	0.00934635	-0.0014244	0
5587.05	0.00940363	-0.00144808	0
5607.05	0.0094609	-0.00142307	0
5627.05	0.00932727	-0.00141568	0
5647.05	0.00928908	-0.00140811	0
5667.05	0.00938454	-0.00139703	0
5687.05	0.00942272	-0.00140951	0
5707.05	0.00928908	-0.0013985	0
5727.05	0.00940363	-0.00139448	0
5747.05	0.00934635	-0.00135705	0
5767.05	0.00926999	-0.00138608	0
5787.05	0.00947999	-0.00136979	0
5807.05	0.00936545	-0.00137927	0
5827.05	0.00942272	-0.00136934	0
5847.05	0.00940363	-0.00135253	0
5867.05	0.00926999	-0.00131141	0
5887.05	0.00940363	-0.00133477	0
5907.05	0.00940363	-0.00133497	0
5927.05	0.00936545	-0.00132134	0
5947.05	0.00942272	-0.00133458	0
5967.05	0.0092509	-0.00131886	0
5987.05	0.00936545	-0.00130651	0
6007.05	0.00938454	-0.00129518	0
6027.05	0.00930818	-0.00129741	0
6047.05	0.00930818	-0.00129747	0
6067.05	0.00930818	-0.00127513	0
6087.05	0.00936545	-0.00127615	0
6107.05	0.00942272	-0.00128996	0
6127.05	0.0094609	-0.0012601	0
6147.05	0.00938454	-0.00126692	0
6167.05	0.00926999	-0.00125469	0
6187.05	0.00936545	-0.00126806	0
6207.05	0.0092509	-0.00124254	0
6227.05	0.00936545	-0.0012573	0
6247.05	0.00940363	-0.00125329	0
6267.05	0.00932727	-0.00124445	0
6287.05	0.00936545	-0.00123642	0
6307.05	0.00942272	-0.00123197	0
6327.05	0.00940363	-0.00122051	0
6347.05	0.00940363	-0.00121847	0
6367.05	0.00944181	-0.00119473	0
6387.05	0.00947999	-0.00122102	0
6407.05	0.00934635	-0.00124769	0
6427.05	0.00940363	-0.00121268	0
6447.05	0.00934635	-0.00120752	0
6467.05	0.00932727	-0.00118894	0
6487.05	0.00936545	-0.0012023	0
6507.05	0.00938454	-0.001196	0
6527.05	0.00940363	-0.00120027	0
6547.05	0.00938454	-0.00119256	0
6567.05	0.00928908	-0.00118493	0
6587.05	0.00936545	-0.00118696	0
6607.05	0.00942272	-0.00116246	0
6627.05	0.00932727	-0.00116818	0
6647.05	0.00934635	-0.00116233	0
6667.05	0.00934635	-0.00117449	0
6687.05	0.00938454	-0.00116914	0
6707.05	0.00934635	-0.00114228	0
6727.05	0.00947999	-0.00115348	0
6747.05	0.00942272	-0.0011277	0
6767.05	0.00940363	-0.00114368	0
6787.05	0.00934635	-0.00113413	0
6807.05	0.00953726	-0.001127	0
6827.05	0.00940363	-0.00114107	0
6847.05	0.00942272	-0.00114578	0
6867.05	0.00936545	-0.00114807	0
6887.05	0.00934635	-0.00112458	0
6907.05	0.00932727	-0.00111796	0
6927.05	0.00934635	-0.0011191	0
6947.05	0.00936545	-0.00110383	0
6967.05	0.00940363	-0.00111299	0
6987.05	0.00930818	-0.00107811	0
7007.05	0.00930818	-0.00110873	0
7027.05	0.00936545	-0.00109632	0
7047.05	0.0094609	-0.00111166	0
7067.05	0.00932727	-0.00108626	0
7087.05	0.00932727	-0.00107397	0
7107.05	0.00934635	-0.0010804	0
7127.05	0.00938454	-0.00107397	0
7147.05	0.00940363	-0.00107155	0
7167.05	0.00942272	-0.00108855	0
7187.05	0.00938454	-0.00108696	0
7207.05	0.00938454	-0.00104698	0
7227.05	0.00940363	-0.00105023	0
7247.05	0.00932727	-0.00104946	0
7267.05	0.00936545	-0.00104405	0
7287.05	0.00942272	-0.00103501	0
7307.05	0.00940363	-0.00102534	0
7327.05	0.00934635	-0.00105545	0
7347.05	0.00934635	-0.0010275	0
7367.05	0.00944181	-0.00102979	0
7387.05	0.00947999	-0.001031	0
7407.05	0.00944181	-0.00102922	0
7427.05	0.00934635	-0.00104698	0
7447.05	0.00936545	-0.00100669	0
7467.05	0.00949908	-0.00103851	0
7487.05	0.00936545	-0.00101261	0
7507.05	0.00936545	-0.0010114	0
7527.05	0.00930818	-0.00102464	0
7547.05	0.00930818	-0.00102286	0
7567.05	0.00936545	-0.0010049	0
7587.05	0.00930818	-0.00101089	0
7607.05	0.00936545	-0.00100573	0
7627.05	0.00953726	-0.000990454	0
7647.05	0.00936545	-0.0010021	0
7667.05	0.00932727	-0.000990708	0
7687.05	0.00930818	-0.000972502	0
7707.05	0.00940363	-0.000989499	0
7727.05	0.00934635	-0.00100166	0
7747.05	0.00938454	-0.000990581	0
7767.05	0.00940363	-0.000982751	0
7787.05	0.00940363	-0.000980969	0
7807.05	0.00942272	-0.000977086	0
7827.05	0.00940363	-0.000980014	0
7847.05	0.00938454	-0.000990645	0
7867.05	0.00934635	-0.000965437	0
7887.05	0.00930818	-0.000989244	0
7907.05	0.00934635	-0.000961745	0
7927.05	0.00936545	-0.000957543	0
7947.05	0.00940363	-0.000978359	0
7967.05	0.00940363	-0.000948695	0
7987.05	0.00938454	-0.000987207	0
8007.05	0.00942272	-0.000971038	0
8027.05	0.00936545	-0.000968683	0
8047.05	0.00938454	-0.000969638	0
8067.05	0.00938454	-0.000947931	0
8087.05	0.00942272	-0.000943539	0
8107.05	0.00936545	-0.000951241	0
8127.05	0.00940363	-0.000935645	0
8147.05	0.00942272	-0.000934627	0
8167.05	0.0094609	-0.000919858	0
8187.05	0.00944181	-0.000941438	0
8207.05	0.00942272	-0.000943539	0
8227.05	0.00928908	-0.00093138	0
8247.05	0.00932727	-0.000923741	0
8267.05	0.00932727	-0.000898469	0
8287.05	0.00940363	-0.0009352	0
8307.05	0.00940363	-0.000924314	0
8327.05	0.00934635	-0.000914893	0
8347.05	0.00936545	-0.000923041	0
8367.05	0.00944181	-0.00091884	0
8387.05	0.00934635	-0.000895796	0
8407.05	0.00936545	-0.000920304	0
8427.05	0.00934635	-0.000930807	0
8447.05	0.00938454	-0.000899997	0
8467.05	0.00938454	-0.000912729	0
8487.05	0.00940363	-0.000894523	0
8507.05	0.00936545	-0.000893504	0
8527.05	0.00936545	-0.000884465	0
8547.05	0.0094609	-0.000909737	0
8567.05	0.00940363	-0.000873771	0
8587.05	0.0092509	-0.000895987	0
8607.05	0.00932727	-0.000880709	0
8627.05	0.00942272	-0.000886884	0
8647.05	0.00928908	-0.000898342	0
8667.05	0.00942272	-0.000894395	0
8687.05	0.00932727	-0.000878799	0
8707.05	0.00942272	-0.000898724	0
8727.05	0.00940363	-0.000896878	0
8747.05	0.00938454	-0.000897769	0
8767.05	0.00940363	-0.000904644	0
8787.05	0.00934635	-0.000880264	0
8807.05	0.00932727	-0.000855565	0
8827.05	0.00936545	-0.000874853	0
8847.05	0.00934635	-0.000864986	0
8867.05	0.00932727	-0.000877399	0
8887.05	0.0094609	-0.000851236	0
8907.05	0.00936545	-0.000844488	0
8927.05	0.00934635	-0.000879054	0
8947.05	0.00944181	-0.000847735	0
8967.05	0.00932727	-0.000856074	0
8987.05	0.00938454	-0.000857793	0
9007.05	0.00940363	-0.000856647	0
9027.05	0.00938454	-0.000844425	0
9047.05	0.00932727	-0.000845698	0
9067.05	0.00936545	-0.000842324	0
9087.05	0.0094609	-0.000839268	0
9107.05	0.00938454	-0.000832075	0
9127.05	0.00938454	-0.000849454	0
9147.05	0.0094609	-0.000833094	0
9167.05	0.00928908	-0.000826728	0
9187.05	0.00944181	-0.000817816	0
9207.05	0.00940363	-0.000818453	0
9227.05	0.00932727	-0.000812342	0
9247.05	0.00944181	-0.000792608	0
9267.05	0.00934635	-0.000840414	0
9287.05	0.00949908	-0.000813997	0
9307.05	0.00942272	-0.000847989	0
9327.05	0.00932727	-0.000814633	0
9347.05	0.00936545	-0.000851936	0
9367.05	0.00932727	-0.000828383	0
9387.05	0.00940363	-0.000811323	0
9407.05	0.00934635	-0.000805976	0
9427.05	0.00940363	-0.000827301	0
9447.05	0.00944181	-0.000823291	0
9467.05	0.00938454	-0.00081788	0
9487.05	0.00944181	-0.000819726	0
9507.05	0.00936545	-0.000789361	0
9527.05	0.00932727	-0.000791207	0
9547.05	0.00934635	-0.000803111	0
9567.05	0.0094609	-0.000824691	0
9587.05	0.00928908	-0.000790953	0
9607.05	0.00932727	-0.000789425	0
9627.05	0.00932727	-0.000782423	0
9647.05	0.00938454	-0.000791908	0
9667.05	0.00938454	-0.000773192	0
9687.05	0.00940363	-0.000790698	0
9707.05	0.00936545	-0.000820935	0
9727.05	0.00932727	-0.000787579	0
9747.05	0.00930818	-0.000780513	0
9767.05	0.00938454	-0.000786179	0
9787.05	0.00934635	-0.000782805	0
9807.05	0.00936545	-0.000783123	0
9827.05	0.00934635	-0.000782677	0
9847.05	0.00938454	-0.000770201	0
9867.05	0.00936545	-0.000788406	0
9887.05	0.00944181	-0.000781722	0
9907.05	0.00934635	-0.000778794	0
9927.05	0.00934635	-0.000765936	0
9947.05	0.00940363	-0.000778731	0
9967.05	0.00934635	-0.000778858	0
9987.05	0.00944181	-0.000748557	0
10007.1	0.00938454	-0.000773893	0
10027.1	0.00940363	-0.00079178	0
10047.1	0.00940363	-0.000778221	0
10067.1	0.00940363	-0.000762498	0
10087.1	0.00942272	-0.000783569	0
10107.1	0.00934635	-0.00077663	0
10127.1	0.00944181	-0.0007688	0
10147.1	0.00934635	-0.000773956	0
10167.1	0.00938454	-0.000773638	0
10187.1	0.00934635	-0.000780004	0
10207.1	0.00938454	-0.000753331	0
10227.1	0.0094609	-0.000740345	0
10247.1	0.00938454	-0.000754923	0
10267.1	0.00934635	-0.000760907	0
10287.1	0.00938454	-0.000760525	0
10307.1	0.00930818	-0.000747539	0
10327.1	0.00938454	-0.000734234	0
10347.1	0.00940363	-0.000750531	0
10367.1	0.00944181	-0.000745565	0
10387.1	0.00934635	-0.000723986	0
10407.1	0.0092509	-0.000727614	0
10427.1	0.00928908	-0.000742446	0
10447.1	0.00930818	-0.000718829	0
10467.1	0.00932727	-0.000741109	0
10487.1	0.00934635	-0.000728569	0
10507.1	0.00940363	-0.000737927	0
10527.1	0.00932727	-0.000719593	0
10547.1	0.00942272	-0.000734935	0
10567.1	0.00921272	-0.000721439	0
10587.1	0.00926999	-0.000728187	0
10607.1	0.00938454	-0.000747984	0
10627.1	0.00936545	-0.00071571	0
10647.1	0.00942272	-0.000710809	0
10667.1	0.00942272	-0.000732898	0
10687.1	0.00936545	-0.000727741	0
10707.1	0.00936545	-0.000720675	0
10727.1	0.00932727	-0.000728887	0
10747.1	0.00942272	-0.000715392	0
10767.1	0.00942272	-0.000716665	0
10787.1	0.0094609	-0.000723731	0
10807.1	0.00934635	-0.000726214	0
10827.1	0.00934635	-0.000709217	0
10847.1	0.00923181	-0.000729269	0
10867.1	0.00938454	-0.000706671	0
10887.1	0.00942272	-0.000710363	0
10907.1	0.00934635	-0.000684009	0
10927.1	0.00940363	-0.000710809	0
10947.1	0.00940363	-0.000710363	0
10967.1	0.00942272	-0.000702279	0
10987.1	0.00938454	-0.000707244	0
11007.1	0.00940363	-0.000688783	0
11027.1	0.0094609	-0.000710618	0
11047.1	0.00942272	-0.000706798	0
11067.1	0.00944181	-0.000697759	0
11087.1	0.00942272	-0.000703297	0
11107.1	0.00936545	-0.000699414	0
11127.1	0.00938454	-0.000701069	0
11147.1	0.0094609	-0.000697186	0
11167.1	0.00940363	-0.000687956	0
11187.1	0.00930818	-0.000686492	0
11207.1	0.00942272	-0.000707053	0
11227.1	0.00936545	-0.000681781	0
11247.1	0.00940363	-0.000656509	0
11267.1	0.00949908	-0.000686555	0
11287.1	0.00936545	-0.00069012	0
11307.1	0.00938454	-0.000702724	0
11327.1	0.00938454	-0.000694894	0
11347.1	0.00949908	-0.0006849	0
11367.1	0.00940363	-0.000681972	0
11387.1	0.00932727	-0.000695849	0
11407.1	0.00940363	-0.000676052	0
11427.1	0.00938454	-0.000689547	0
11447.1	0.00949908	-0.0006849	0
11467.1	0.00938454	-0.000646069	0
11487.1	0.00940363	-0.000682099	0
11507.1	0.00926999	-0.000670386	0
11527.1	0.00938454	-0.000675479	0
11547.1	0.00928908	-0.000650971	0
11567.1	0.0092509	-0.000662429	0
11587.1	0.00934635	-0.000672551	0
11607.1	0.0094609	-0.000657591	0
11627.1	0.00934635	-0.000675606	0
11647.1	0.00942272	-0.000670705	0
11667.1	0.00938454	-0.000653963	0
11687.1	0.00936545	-0.000650016	0
11707.1	0.00928908	-0.000673187	0
11727.1	0.00936545	-0.000666249	0
11747.1	0.00934635	-0.000669368	0
11767.1	0.00942272	-0.000658801	0
11787.1	0.00936545	-0.000668986	0
11807.1	0.00938454	-0.000677389	0
11827.1	0.00940363	-0.000666567	0
11847.1	0.00942272	-0.000668859	0
11867.1	0.00938454	-0.00066854	0
11887.1	0.00934635	-0.000667458	0
11907.1	0.00938454	-0.000659947	0
11927.1	0.00934635	-0.000634102	0
11947.1	0.00936545	-0.000655172	0
11967.1	0.00936545	-0.000669495	0
11987.1	0.00942272	-0.000673569	0
12007.1	0.00940363	-0.000660647	0
12027.1	0.00932727	-0.000648488	0
12047.1	0.00936545	-0.000662047	0
12067.1	0.00940363	-0.000627291	0
12087.1	0.00942272	-0.000644796	0
12107.1	0.00932727	-0.000653326	0
12127.1	0.00936545	-0.000643014	0
12147.1	0.00934635	-0.00066192	0
12167.1	0.00942272	-0.000656764	0
12187.1	0.00938454	-0.000627736	0
12207.1	0.00938454	-0.000633593	0
12227.1	0.00942272	-0.000643523	0
12247.1	0.00936545	-0.000636585	0
12267.1	0.00938454	-0.00063111	0
12287.1	0.00940363	-0.000626781	0
12307.1	0.00936545	-0.00062398	0
12327.1	0.00942272	-0.000618442	0
12347.1	0.00938454	-0.00063824	0
12367.1	0.00938454	-0.000633274	0
12387.1	0.00938454	-0.000634484	0
12407.1	0.0092509	-0.000613986	0
12427.1	0.00926999	-0.000633784	0
12447.1	0.00936545	-0.000644414	0
12467.1	0.00930818	-0.000647088	0
12487.1	0.00928908	-0.000634802	0
12507.1	0.00936545	-0.000625317	0
12527.1	0.0092509	-0.000627418	0
12547.1	0.00934635	-0.000622134	0
12567.1	0.00938454	-0.000655745	0
12587.1	0.00940363	-0.000602082	0
12607.1	0.00930818	-0.000630983	0
12627.1	0.00938454	-0.000610994	0
12647.1	0.00940363	-0.000603165	0
12667.1	0.00926999	-0.000617551	0
12687.1	0.00936545	-0.000602464	0
12707.1	0.00930818	-0.000628564	0
12727.1	0.00926999	-0.000629391	0
12747.1	0.00936545	-0.000633402	0
12767.1	0.00930818	-0.000627991	0
12787.1	0.00934635	-0.000629391	0
12807.1	0.00942272	-0.000591897	0
12827.1	0.00944181	-0.000627545	0
12847.1	0.00944181	-0.000597945	0
12867.1	0.00940363	-0.000592789	0
12887.1	0.00936545	-0.000593871	0
12907.1	0.00944181	-0.000592852	0
12927.1	0.00936545	-0.000627609	0
12947.1	0.00930818	-0.000615005	0
12967.1	0.00930818	-0.000612459	0
12987.1	0.00938454	-0.000598136	0
13007.1	0.00934635	-0.000620607	0
13027.1	0.00934635	-0.000617678	0
13047.1	0.00944181	-0.000601	0
13067.1	0.00930818	-0.000577002	0
13087.1	0.00932727	-0.000608894	0
13107.1	0.00940363	-0.000622771	0
13127.1	0.00944181	-0.000598772	0
13147.1	0.00942272	-0.00060622	0
13167.1	0.00934635	-0.000616342	0
13187.1	0.00938454	-0.000627864	0
13207.1	0.0094609	-0.000617742	0
13227.1	0.0094609	-0.000593107	0
13247.1	0.00947999	-0.000613668	0
13267.1	0.00942272	-0.00062188	0
13287.1	0.00932727	-0.000586359	0
13307.1	0.00938454	-0.000611313	0
13327.1	0.00932727	-0.000620161	0
13347.1	0.00934635	-0.000585532	0
13367.1	0.00930818	-0.000617933	0
13387.1	0.00934635	-0.000605584	0
13407.1	0.00938454	-0.000584895	0
13427.1	0.00934635	-0.000620734	0
13447.1	0.00940363	-0.000605011	0
13467.1	0.00936545	-0.00059298	0
13487.1	0.00942272	-0.000591261	0
13507.1	0.00932727	-0.000602655	0
13527.1	0.00930818	-0.000610358	0
13547.1	0.00942272	-0.000604629	0
13567.1	0.00930818	-0.000590179	0
13587.1	0.00934635	-0.000611504	0
13607.1	0.00942272	-0.000574264	0
13627.1	0.00938454	-0.000613413	0
13647.1	0.00938454	-0.000596226	0
13667.1	0.00938454	-0.000603928	0
13687.1	0.00932727	-0.000586295	0
13707.1	0.00940363	-0.000604438	0
13727.1	0.00938454	-0.000569617	0
13747.1	0.00938454	-0.000613668	0
13767.1	0.00942272	-0.00061526	0
13787.1	0.00938454	-0.000587378	0
13807.1	0.00942272	-0.000608003	0
13827.1	0.00936545	-0.000584322	0
13847.1	0.00934635	-0.000586805	0
13867.1	0.00938454	-0.000605393	0
13887.1	0.0094609	-0.000598836	0
13907.1	0.00940363	-0.000584195	0
13927.1	0.00936545	-0.000569681	0
13947.1	0.00936545	-0.000579421	0
13967.1	0.00940363	-0.000571463	0
13987.1	0.00934635	-0.000581585	0
14007.1	0.00938454	-0.000600746	0
14027.1	0.00942272	-0.000600427	0
14047.1	0.00938454	-0.000597754	0
14067.1	0.00947999	-0.000595144	0
14087.1	0.00944181	-0.000572991	0
14107.1	0.00936545	-0.000571272	0
14127.1	0.00944181	-0.000590242	0
14147.1	0.00938454	-0.000572164	0
14167.1	0.00932727	-0.000595908	0
14187.1	0.00938454	-0.000590115	0
14207.1	0.00942272	-0.000580248	0
14227.1	0.00938454	-0.000572482	0
14247.1	0.00940363	-0.000556822	0
14267.1	0.00936545	-0.000581521	0
14287.1	0.00938454	-0.000561533	0
14307.1	0.00940363	-0.000584386	0
14327.1	0.0094609	-0.000568217	0
14347.1	0.00938454	-0.000565161	0
14367.1	0.00940363	-0.000578402	0
14387.1	0.00942272	-0.000565034	0
14407.1	0.00938454	-0.000565543	0
14427.1	0.00934635	-0.000581267	0
14447.1	0.00928908	-0.00057019	0
14467.1	0.00932727	-0.00057471	0
14487.1	0.00930818	-0.000557459	0
14507.1	0.00936545	-0.000553576	0
14527.1	0.00936545	-0.000557523	0
14547.1	0.00928908	-0.000564397	0
14567.1	0.00928908	-0.000566562	0
14587.1	0.00936545	-0.00056497	0
14607.1	0.00940363	-0.000573246	0
14627.1	0.00947999	-0.000575665	0
14647.1	0.00940363	-0.000565671	0
14667.1	0.00940363	-0.000571973	0
14687.1	0.00949908	-0.000542054	0
14707.1	0.00936545	-0.000554276	0
14727.1	0.00940363	-0.000525376	0
14747.1	0.00938454	-0.000547465	0
14767.1	0.00942272	-0.000552621	0
14787.1	0.00942272	-0.000560769	0
14807.1	0.00938454	-0.000555422	0
14827.1	0.00942272	-0.000549247	0
14847.1	0.00934635	-0.000565161	0
14867.1	0.00930818	-0.000575983	0
14887.1	0.00934635	-0.000540208	0
14907.1	0.00936545	-0.000564843	0
14927.1	0.00942272	-0.000556568	0
14947.1	0.00940363	-0.000558668	0
14967.1	0.00938454	-0.000550138	0
14987.1	0.00936545	-0.000554467	0
15007.1	0.00938454	-0.000519392	0
15027.1	0.00926999	-0.000552557	0
15047.1	0.00938454	-0.000555677	0
15067.1	0.00936545	-0.000551602	0
15087.1	0.00938454	-0.000548038	0
15107.1	0.00936545	-0.00052302	0
15127.1	0.00932727	-0.000530086	0
15147.1	0.00936545	-0.000546765	0
15167.1	0.00934635	-0.000522002	0
15187.1	0.00942272	-0.000529068	0
15207.1	0.00944181	-0.000553385	0
15227.1	0.00938454	-0.000539953	0
15247.1	0.00944181	-0.000537789	0
15267.1	0.00930818	-0.00054581	0
15287.1	0.00936545	-0.000511944	0
15307.1	0.00944181	-0.000539826	0
15327.1	0.00947999	-0.000554658	0
15347.1	0.00938454	-0.000530468	0
15367.1	0.00934635	-0.000533842	0
15387.1	0.00934635	-0.000525185	0
15407.1	0.00932727	-0.000530532	0
15427.1	0.00942272	-0.000532951	0
15447.1	0.00949908	-0.000529832	0
15467.1	0.00938454	-0.000534542	0
15487.1	0.00940363	-0.000547656	0
15507.1	0.00940363	-0.000530405	0
15527.1	0.00940363	-0.000549756	0
15547.1	0.00940363	-0.000555549	0
15567.1	0.0094609	-0.000510289	0
15587.1	0.00942272	-0.000531232	0
15607.1	0.00940363	-0.000543009	0
15627.1	0.00934635	-0.00055434	0
15647.1	0.00932727	-0.000530914	0
15667.1	0.00928908	-0.00053537	0
15687.1	0.00930818	-0.00053607	0
15707.1	0.00942272	-0.000510989	0
15727.1	0.00938454	-0.000523784	0
15747.1	0.00934635	-0.000534097	0
15767.1	0.00938454	-0.000530023	0
15787.1	0.00938454	-0.000522066	0
15807.1	0.00940363	-0.000514618	0
15827.1	0.00932727	-0.000512453	0
15847.1	0.00934635	-0.000526267	0
15867.1	0.00936545	-0.000516527	0
15887.1	0.00926999	-0.000534415	0
15907.1	0.00942272	-0.000533078	0
15927.1	0.00940363	-0.000520156	0
15947.1	0.00944181	-0.000533651	0
15967.1	0.00932727	-0.000528368	0
15987.1	0.00928908	-0.000518564	0
16007.1	0.00940363	-0.000512899	0
16027.1	0.00942272	-0.000532378	0
16047.1	0.00938454	-0.000476487	0
16067.1	0.00932727	-0.000532824	0
16087.1	0.00940363	-0.00053015	0
16107.1	0.00940363	-0.000508952	0
16127.1	0.00936545	-0.000487182	0
16147.1	0.00938454	-0.000487563	0
16167.1	0.00938454	-0.00052684	0
16187.1	0.00942272	-0.000516336	0
16207.1	0.00936545	-0.000494948	0
16227.1	0.00934635	-0.000523912	0
16247.1	0.00938454	-0.000511626	0
16267.1	0.00936545	-0.000512008	0
16287.1	0.00942272	-0.000509016	0
16307.1	0.00940363	-0.000512071	0
16327.1	0.00940363	-0.000516909	0
16347.1	0.00942272	-0.000509843	0
16367.1	0.00938454	-0.00051239	0
16387.1	0.00934635	-0.000496412	0
16407.1	0.00944181	-0.000513281	0
16427.1	0.00936545	-0.000500931	0
16447.1	0.00936545	-0.000499658	0
16467.1	0.00938454	-0.000502905	0
16487.1	0.00938454	-0.000492847	0
16507.1	0.00930818	-0.000488136	0
16527.1	0.0094609	-0.000508634	0
16547.1	0.00942272	-0.000496857	0
16567.1	0.00940363	-0.000515509	0
16587.1	0.00944181	-0.00049673	0
16607.1	0.00930818	-0.000498067	0
16627.1	0.00940363	-0.000515827	0
16647.1	0.00938454	-0.000513727	0
16667.1	0.00938454	-0.000495457	0
16687.1	0.00930818	-0.000514872	0
16707.1	0.00938454	-0.000507615	0
16727.1	0.00944181	-0.000484444	0
16747.1	0.00942272	-0.00050526	0
16767.1	0.00936545	-0.000490619	0
16787.1	0.00934635	-0.000498003	0
16807.1	0.00947999	-0.000485781	0
16827.1	0.00934635	-0.000498322	0
16847.1	0.00940363	-0.000502459	0
16867.1	0.00934635	-0.000506024	0
16887.1	0.00942272	-0.000483362	0
16907.1	0.00942272	-0.000501377	0
16927.1	0.00936545	-0.000500613	0
16947.1	0.0094609	-0.000501377	0
16967.1	0.00938454	-0.000502141	0
16987.1	0.00938454	-0.000502587	0
17007.1	0.00942272	-0.000496666	0
17027.1	0.00936545	-0.000503159	0
17047.1	0.00936545	-0.00051169	0
17067.1	0.00936545	-0.000508825	0
17087.1	0.00940363	-0.000485145	0
17107.1	0.00940363	-0.000499977	0
17127.1	0.00942272	-0.000492401	0
17147.1	0.00944181	-0.000473686	0
17167.1	0.00934635	-0.000471968	0
17187.1	0.00934635	-0.000503732	0
17207.1	0.0094609	-0.000486036	0
17227.1	0.00942272	-0.000493929	0
17247.1	0.00926999	-0.00047114	0
17267.1	0.00936545	-0.00049081	0
17287.1	0.00940363	-0.000488136	0
17307.1	0.00934635	-0.00048107	0
17327.1	0.00940363	-0.000460573	0
17347.1	0.00934635	-0.000505578	0
17367.1	0.00942272	-0.000485526	0
17387.1	0.00930818	-0.000469039	0
17407.1	0.00930818	-0.000483744	0
17427.1	0.00934635	-0.000492656	0
17447.1	0.00932727	-0.000481643	0
17467.1	0.00942272	-0.000482789	0
17487.1	0.00936545	-0.000473814	0
17507.1	0.00944181	-0.000473877	0
17527.1	0.00934635	-0.000469994	0
17547.1	0.00947999	-0.000468275	0
17567.1	0.00934635	-0.000486927	0
17587.1	0.00926999	-0.000459172	0
17607.1	0.00942272	-0.000481134	0
17627.1	0.00936545	-0.000488964	0
17647.1	0.00934635	-0.000471331	0
17667.1	0.00947999	-0.000470058	0
17687.1	0.00930818	-0.000465856	0
17707.1	0.00932727	-0.000471395	0
17727.1	0.00938454	-0.000478397	0
17747.1	0.00938454	-0.000460191	0
17767.1	0.00930818	-0.000487627	0
17787.1	0.00940363	-0.00048489	0
17807.1	0.00934635	-0.000501313	0
17827.1	0.00944181	-0.000466175	0
17847.1	0.00942272	-0.000464392	0
17867.1	0.00938454	-0.000453571	0
17887.1	0.00932727	-0.000475978	0
17907.1	0.00940363	-0.000475723	0
17927.1	0.00938454	-0.000445041	0
17947.1	0.00934635	-0.000491701	0
17967.1	0.00942272	-0.000465793	0
17987.1	0.00940363	-0.000466493	0
18007.1	0.00940363	-0.000459618	0
18027.1	0.00938454	-0.000468021	0
18047.1	0.00942272	-0.000485336	0
18060.1	0.00928908	-0.000469549	0