File: EXPERIMENTAL/DATA/month-old_I-cell_passivation/2024-06-11_Exploration-measurement-moth-old-I-cells/2024-06-11_month-old-I-cell_built-2024-05-16-old-OCV-2.5V_deltaX-110.3mm_04_CP_C02.txt
time/s	Ewe/V	I/mA	error
18060.2	-0.00602499	-0.194556	0
18060.2	-0.0164489	-0.195956	0
18060.2	-0.0203192	-0.195963	0
18060.2	-0.022209	-0.195963	0
18060.2	-0.0236979	-0.195963	0
18060.2	-0.0254349	-0.195963	0
18060.2	-0.026752	-0.195963	0
18060.2	-0.0279355	-0.195961	0
18060.2	-0.0290617	-0.195964	0
18060.2	-0.0304551	-0.195972	0
18060.2	-0.0318486	-0.195966	0
18060.2	-0.0331657	-0.195964	0
18060.2	-0.03433	-0.195967	0
18060.2	-0.0354753	-0.195964	0
18060.2	-0.0366397	-0.195968	0
18060.2	-0.0376705	-0.19596	0
18060.2	-0.0387776	-0.195968	0
18060.2	-0.0401711	-0.195964	0
18060.2	-0.0415263	-0.195965	0
18060.2	-0.0428625	-0.195958	0
18060.2	-0.0440651	-0.195959	0
18060.2	-0.0453249	-0.19596	0
18060.2	-0.0463366	-0.19597	0
18060.2	-0.0475201	-0.195969	0
18060.2	-0.0486844	-0.195962	0
18060.2	-0.0497152	-0.195968	0
18060.2	-0.0510705	-0.195967	0
18060.2	-0.0522731	-0.195964	0
18060.2	-0.0535329	-0.195968	0
18060.2	-0.05464	-0.195961	0
18060.2	-0.0557089	-0.195968	0
18060.2	-0.0568542	-0.195966	0
18060.2	-0.0580568	-0.195966	0
18060.2	-0.0590876	-0.195962	0
18060.2	-0.0604428	-0.195964	0
18060.2	-0.0617981	-0.195961	0
18060.2	-0.0629816	-0.195961	0
18060.2	-0.0640887	-0.195964	0
18060.2	-0.0652913	-0.195964	0
18060.2	-0.066303	-0.195959	0
18060.2	-0.0673146	-0.195959	0
18060.2	-0.0685172	-0.195962	0
18060.2	-0.0697007	-0.195966	0
18060.2	-0.0709223	-0.195965	0
18060.2	-0.0720867	-0.195965	0
18060.2	-0.0730984	-0.195965	0
18060.2	-0.0741483	-0.195967	0
18060.2	-0.0752745	-0.195963	0
18060.2	-0.0764007	-0.195961	0
18060.2	-0.0774314	-0.195963	0
18060.2	-0.0785004	-0.195962	0
18060.2	-0.079722	-0.195961	0
18060.2	-0.0809819	-0.195969	0
18060.2	-0.0820126	-0.195968	0
18060.2	-0.083177	-0.195967	0
18060.2	-0.0843987	-0.195969	0
18060.2	-0.0854676	-0.195963	0
18060.2	-0.0864984	-0.195962	0
18060.3	-0.0875292	-0.195959	0
18060.3	-0.0886363	-0.195971	0
18060.3	-0.089648	-0.195968	0
18060.3	-0.0910223	-0.195966	0
18060.3	-0.0922058	-0.195964	0
18060.3	-0.0934274	-0.195971	0
18060.3	-0.0945918	-0.195961	0
18060.3	-0.0956799	-0.195963	0
18060.3	-0.0967679	-0.195966	0
18060.3	-0.0978941	-0.19597	0
18060.3	-0.0989058	-0.195964	0
18060.3	-0.0999938	-0.195963	0
18060.3	-0.10112	-0.195956	0
18060.3	-0.102189	-0.195966	0
18060.3	-0.103296	-0.195964	0
18060.3	-0.104346	-0.19597	0
18060.3	-0.105472	-0.195959	0
18060.3	-0.106484	-0.195963	0
18060.3	-0.107534	-0.195959	0
18060.3	-0.108698	-0.195961	0
18060.3	-0.109901	-0.19597	0
18060.3	-0.111008	-0.195965	0
18060.3	-0.112153	-0.195965	0
18060.3	-0.113203	-0.195965	0
18060.3	-0.114348	-0.195968	0
18060.3	-0.115455	-0.195963	0
18060.3	-0.116505	-0.195964	0
18060.3	-0.117517	-0.195965	0
18060.3	-0.118529	-0.195968	0
18060.3	-0.11954	-0.195964	0
18060.3	-0.120724	-0.19597	0
18060.3	-0.121774	-0.195964	0
18060.3	-0.122785	-0.195964	0
18060.3	-0.123931	-0.195959	0
18060.3	-0.124942	-0.195966	0
18060.3	-0.126068	-0.195968	0
18060.3	-0.127118	-0.19597	0
18060.3	-0.128264	-0.19597	0
18060.3	-0.129371	-0.195968	0
18060.3	-0.130497	-0.195966	0
18060.3	-0.131566	-0.195964	0
18060.3	-0.132597	-0.195961	0
18060.3	-0.133723	-0.195963	0
18060.3	-0.134983	-0.195961	0
18060.3	-0.136013	-0.195965	0
18060.3	-0.137025	-0.195963	0
18060.3	-0.138056	-0.195966	0
18060.3	-0.139163	-0.19597	0
18060.3	-0.140213	-0.19597	0
18060.3	-0.141244	-0.195968	0
18060.3	-0.142313	-0.195963	0
18060.3	-0.143343	-0.195959	0
18060.3	-0.144431	-0.195963	0
18060.3	-0.145539	-0.195964	0
18060.3	-0.146607	-0.195967	0
18060.3	-0.147657	-0.195963	0
18060.3	-0.148803	-0.195963	0
18060.3	-0.149929	-0.195963	0
18060.3	-0.151036	-0.195963	0
18060.3	-0.152086	-0.195966	0
18060.3	-0.153174	-0.195961	0
18060.3	-0.154281	-0.195962	0
18060.3	-0.155293	-0.195971	0
18060.3	-0.1564	-0.195967	0
18060.4	-0.157488	-0.195959	0
18060.4	-0.158614	-0.195963	0
18060.4	-0.159664	-0.195968	0
18060.4	-0.160847	-0.195959	0
18060.4	-0.161878	-0.195966	0
18060.4	-0.16289	-0.195963	0
18060.4	-0.163959	-0.195966	0
18060.4	-0.16499	-0.195963	0
18060.4	-0.166039	-0.195966	0
18060.4	-0.167051	-0.195967	0
18060.4	-0.16812	-0.19596	0
18060.4	-0.16917	-0.195959	0
18060.4	-0.170182	-0.195961	0
18060.4	-0.171231	-0.195963	0
18060.4	-0.172319	-0.195973	0
18060.4	-0.173388	-0.195966	0
18060.4	-0.1744	-0.195966	0
18060.4	-0.175469	-0.195967	0
18060.4	-0.176595	-0.195964	0
18060.4	-0.177626	-0.195971	0
18060.4	-0.178657	-0.195965	0
18060.4	-0.179668	-0.195968	0
18060.4	-0.180852	-0.195967	0
18060.4	-0.18194	-0.195962	0
18060.4	-0.183047	-0.19597	0
18060.4	-0.184097	-0.195961	0
18060.4	-0.185128	-0.195959	0
18060.4	-0.186292	-0.195966	0
18060.4	-0.187361	-0.195968	0
18060.4	-0.188392	-0.195965	0
18060.5	-0.189423	-0.195962	0
18060.5	-0.190434	-0.195968	0
18060.5	-0.191522	-0.195961	0
18060.5	-0.192591	-0.19597	0
18060.5	-0.193641	-0.195964	0
18060.5	-0.194748	-0.195966	0
18060.5	-0.195817	-0.195964	0
18060.5	-0.196867	-0.195963	0
18060.5	-0.197879	-0.19597	0
18060.5	-0.198929	-0.195966	0
18060.6	-0.197879	-0.195973	0
18060.6	-0.196829	-0.195961	0
18060.6	-0.195779	-0.195966	0
18060.6	-0.19471	-0.195968	0
18060.6	-0.193641	-0.195967	0
18060.6	-0.19261	-0.195964	0
18060.6	-0.191541	-0.195968	0
18060.6	-0.190492	-0.195962	0
18060.6	-0.189403	-0.195969	0
18060.6	-0.188239	-0.195966	0
18060.6	-0.187227	-0.195969	0
18060.6	-0.186178	-0.195961	0
18060.6	-0.185147	-0.19597	0
18060.6	-0.184116	-0.195964	0
18060.7	-0.183085	-0.195966	0
18060.7	-0.182016	-0.195964	0
18060.7	-0.181005	-0.195964	0
18060.7	-0.179955	-0.195968	0
18060.7	-0.178943	-0.195957	0
18060.7	-0.177855	-0.195964	0
18060.7	-0.176786	-0.195965	0
18060.7	-0.175774	-0.195963	0
18060.7	-0.174725	-0.195969	0
18060.7	-0.173694	-0.195963	0
18060.7	-0.172606	-0.195966	0
18060.7	-0.171594	-0.19597	0
18060.7	-0.170563	-0.195966	0
18060.7	-0.169513	-0.195967	0
18060.7	-0.168425	-0.195963	0
18060.7	-0.167395	-0.195966	0
18060.7	-0.166326	-0.195965	0
18060.7	-0.165276	-0.195971	0
18060.7	-0.164264	-0.195963	0
18060.7	-0.163252	-0.195965	0
18060.7	-0.162222	-0.195964	0
18060.7	-0.161076	-0.195965	0
18060.7	-0.160007	-0.19596	0
18060.7	-0.158977	-0.195968	0
18060.7	-0.157946	-0.195963	0
18060.8	-0.156858	-0.195966	0
18060.8	-0.155827	-0.195972	0
18060.8	-0.154682	-0.19597	0
18060.8	-0.15367	-0.195968	0
18060.8	-0.152544	-0.195963	0
18060.8	-0.151437	-0.195966	0
18060.8	-0.150406	-0.195963	0
18060.8	-0.149394	-0.195967	0
18060.8	-0.148364	-0.195964	0
18060.8	-0.147276	-0.195967	0
18060.8	-0.14613	-0.195965	0
18060.8	-0.14508	-0.19597	0
18060.8	-0.144069	-0.195966	0
18060.8	-0.143057	-0.195963	0
18060.8	-0.142007	-0.195968	0
18060.8	-0.140919	-0.195966	0
18060.9	-0.139907	-0.195964	0
18060.9	-0.138839	-0.195959	0
18060.9	-0.137808	-0.195966	0
18060.9	-0.136796	-0.195964	0
18060.9	-0.135727	-0.195963	0
18060.9	-0.134715	-0.195969	0
18060.9	-0.133666	-0.195963	0
18060.9	-0.132654	-0.195968	0
18060.9	-0.131566	-0.195966	0
18060.9	-0.130554	-0.195964	0
18061	-0.129543	-0.195966	0
18061	-0.128531	-0.195964	0
18061	-0.127519	-0.195966	0
18061	-0.126469	-0.195968	0
18061	-0.125419	-0.19597	0
18061	-0.124389	-0.19597	0
18061.1	-0.123301	-0.195966	0
18061.1	-0.122289	-0.195966	0
18061.1	-0.121182	-0.195968	0
18061.2	-0.120132	-0.195964	0
18061.2	-0.119101	-0.195964	0
18061.3	-0.118013	-0.195967	0
18061.4	-0.117001	-0.195968	0
18061.6	-0.11599	-0.195971	0
18062.7	-0.117001	-0.195968	0
18063.3	-0.118032	-0.195966	0
18064	-0.119063	-0.195968	0
18065	-0.120075	-0.195966	0
18066.5	-0.121086	-0.195964	0
18076.5	-0.121125	-0.195967	0
18086.5	-0.120418	-0.195968	0
18096.5	-0.11996	-0.195969	0
18106.5	-0.11975	-0.195963	0
18116.5	-0.120056	-0.195969	0
18126.5	-0.120056	-0.195966	0
18136.5	-0.120323	-0.195968	0
18146.5	-0.120514	-0.195973	0
18156.5	-0.120743	-0.19597	0
18166.5	-0.121105	-0.195962	0
18176.5	-0.121163	-0.195966	0
18186.5	-0.121411	-0.19597	0
18196.5	-0.121506	-0.195968	0
18206.5	-0.121545	-0.195967	0
18216.5	-0.121735	-0.195974	0
18226.5	-0.121774	-0.195973	0
18236.5	-0.121774	-0.195968	0
18246.5	-0.121774	-0.19597	0
18256.5	-0.121506	-0.195969	0
18266.5	-0.121545	-0.195967	0
18276.5	-0.121525	-0.195971	0
18286.5	-0.121525	-0.195971	0
18296.5	-0.121354	-0.195968	0
18306.5	-0.121182	-0.195965	0
18316.5	-0.121048	-0.195963	0
18326.5	-0.120915	-0.195971	0
18336.5	-0.120705	-0.195973	0
18346.5	-0.120609	-0.195968	0
18356.5	-0.120495	-0.19597	0
18366.5	-0.120399	-0.195971	0
18376.5	-0.120151	-0.195969	0
18386.5	-0.119827	-0.19597	0
18396.5	-0.119598	-0.19597	0
18406.5	-0.119483	-0.195965	0
18416.5	-0.119292	-0.19597	0
18426.5	-0.119178	-0.195968	0
18436.5	-0.119082	-0.195968	0
18446.5	-0.118815	-0.195974	0
18456.5	-0.118624	-0.19597	0
18466.5	-0.118471	-0.195976	0
18476.5	-0.118204	-0.19597	0
18486.5	-0.118013	-0.195977	0
18496.5	-0.117822	-0.195971	0
18506.5	-0.11767	-0.195968	0
18516.5	-0.117555	-0.195968	0
18526.5	-0.117383	-0.195965	0
18536.5	-0.117211	-0.195972	0
18546.5	-0.117192	-0.195971	0
18556.5	-0.116944	-0.195969	0
18566.5	-0.116887	-0.195966	0
18576.5	-0.116677	-0.195971	0
18586.5	-0.116639	-0.195971	0
18596.5	-0.11641	-0.19597	0
18606.5	-0.116352	-0.195969	0
18616.5	-0.116123	-0.195971	0
18626.5	-0.11599	-0.195971	0
18636.5	-0.115933	-0.19597	0
18646.5	-0.115684	-0.195975	0
18656.5	-0.115608	-0.195969	0
18666.5	-0.115627	-0.195966	0
18676.5	-0.115322	-0.195972	0
18686.5	-0.115284	-0.195971	0
18696.5	-0.115226	-0.195966	0
18706.5	-0.115074	-0.195972	0
18716.5	-0.114883	-0.195967	0
18726.5	-0.114883	-0.195975	0
18736.5	-0.114825	-0.195972	0
18746.5	-0.114635	-0.195975	0
18756.5	-0.114539	-0.195972	0
18766.5	-0.114425	-0.195966	0
18776.5	-0.11431	-0.195973	0
18786.5	-0.114253	-0.195973	0
18796.5	-0.114196	-0.195968	0
18806.5	-0.114024	-0.195966	0
18816.5	-0.114005	-0.195966	0
18826.5	-0.11389	-0.195967	0
18836.5	-0.113909	-0.195966	0
18846.5	-0.11368	-0.195969	0
18856.5	-0.113661	-0.195965	0
18866.5	-0.113489	-0.195963	0
18876.5	-0.113489	-0.19597	0
18886.5	-0.113451	-0.195971	0
18896.5	-0.113337	-0.19597	0
18906.5	-0.113222	-0.195963	0
18916.5	-0.113069	-0.195975	0
18926.5	-0.113107	-0.195967	0
18936.5	-0.112878	-0.195974	0
18946.5	-0.112974	-0.195973	0
18956.5	-0.112802	-0.195974	0
18966.5	-0.112726	-0.195966	0
18976.5	-0.11263	-0.19597	0
18986.5	-0.112573	-0.195973	0
18996.5	-0.112401	-0.195966	0
19006.5	-0.112401	-0.195966	0
19016.5	-0.112306	-0.195973	0
19026.5	-0.112306	-0.195974	0
19036.5	-0.112191	-0.195977	0
19046.5	-0.112134	-0.195967	0
19056.5	-0.112191	-0.195969	0
19066.5	-0.112	-0.195971	0
19076.5	-0.111886	-0.195967	0
19086.5	-0.112	-0.195968	0
19096.5	-0.111848	-0.195972	0
19106.5	-0.111657	-0.19597	0
19116.5	-0.111657	-0.195969	0
19126.5	-0.111561	-0.195973	0
19136.5	-0.111485	-0.195969	0
19146.5	-0.111485	-0.195971	0
19156.5	-0.11139	-0.19597	0
19166.5	-0.111447	-0.195966	0
19176.5	-0.111313	-0.195971	0
19186.5	-0.111218	-0.195972	0
19196.5	-0.111199	-0.195973	0
19206.5	-0.111008	-0.195971	0
19216.5	-0.111027	-0.195973	0
19226.5	-0.111065	-0.195977	0
19236.5	-0.110836	-0.195973	0
19246.5	-0.11076	-0.195974	0
19256.5	-0.110912	-0.195969	0
19266.5	-0.110702	-0.195971	0
19276.5	-0.110721	-0.195971	0
19286.5	-0.110588	-0.195968	0
19296.5	-0.110531	-0.195973	0
19306.5	-0.110397	-0.195968	0
19316.5	-0.110473	-0.195973	0
19326.5	-0.110321	-0.19597	0
19336.5	-0.110378	-0.195968	0
19346.5	-0.110302	-0.195968	0
19356.5	-0.110321	-0.195973	0
19366.5	-0.110111	-0.19597	0
19376.5	-0.110111	-0.195969	0
19386.5	-0.11013	-0.195971	0
19396.5	-0.109939	-0.195968	0
19406.5	-0.109977	-0.195968	0
19416.5	-0.109958	-0.19597	0
19426.5	-0.109805	-0.195971	0
19436.5	-0.109862	-0.195971	0
19446.5	-0.109729	-0.195973	0
19456.5	-0.109672	-0.195968	0
19466.5	-0.109595	-0.195968	0
19476.5	-0.109538	-0.19597	0
19486.5	-0.109481	-0.19597	0
19496.5	-0.109347	-0.195967	0
19506.5	-0.109404	-0.195967	0
19516.5	-0.109271	-0.195975	0
19526.5	-0.109252	-0.195965	0
19536.5	-0.109309	-0.195969	0
19546.5	-0.109271	-0.195971	0
19556.5	-0.109233	-0.195972	0
19566.5	-0.108946	-0.195971	0
19576.5	-0.109061	-0.195976	0
19586.5	-0.109023	-0.195969	0
19596.5	-0.108946	-0.195975	0
19606.5	-0.108794	-0.19597	0
19616.5	-0.108813	-0.195966	0
19626.5	-0.108889	-0.19597	0
19636.5	-0.10866	-0.19597	0
19646.5	-0.108832	-0.195966	0
19656.5	-0.108679	-0.195976	0
19666.5	-0.108507	-0.195979	0
19676.5	-0.108488	-0.195969	0
19686.5	-0.10845	-0.19597	0
19696.5	-0.108545	-0.195966	0
19706.5	-0.108469	-0.195973	0
19716.5	-0.108221	-0.195967	0
19726.5	-0.108259	-0.195969	0
19736.5	-0.108316	-0.195967	0
19746.5	-0.108202	-0.19597	0
19756.5	-0.108145	-0.195974	0
19766.5	-0.108125	-0.195968	0
19776.5	-0.108049	-0.195969	0
19786.5	-0.10803	-0.195964	0
19796.5	-0.108049	-0.195971	0
19806.5	-0.107954	-0.19597	0
19816.5	-0.107858	-0.195966	0
19826.5	-0.107763	-0.195977	0
19836.5	-0.107801	-0.195968	0
19846.5	-0.107954	-0.195967	0
19856.5	-0.107744	-0.195966	0
19860.2	-0.107705	-0.195971	0