File: EXPERIMENTAL/DATA/month-old_I-cell_passivation/2024-06-11_Exploration-measurement-moth-old-I-cells/2024-06-11_month-old-I-cell_built-2024-05-16-old-OCV-2.2V_deltaX-110.0mm_04_CP_C04.txt
time/s	Ewe/V	I/mA	error
18060.2	-0.00469451	-0.19473	0
18060.2	-0.0114297	-0.195972	0
18060.2	-0.0152569	-0.195979	0
18060.2	-0.0166886	-0.195976	0
18060.2	-0.0183304	-0.195979	0
18060.2	-0.0197049	-0.195979	0
18060.2	-0.0207166	-0.195982	0
18060.2	-0.0217475	-0.195981	0
18060.2	-0.0228547	-0.195983	0
18060.2	-0.023962	-0.195975	0
18060.2	-0.0250119	-0.195984	0
18060.2	-0.0260428	-0.195974	0
18060.2	-0.0272646	-0.19597	0
18060.2	-0.0284863	-0.19598	0
18060.2	-0.0297081	-0.195984	0
18060.2	-0.0307581	-0.195982	0
18060.2	-0.0319035	-0.195977	0
18060.2	-0.033068	-0.195984	0
18060.2	-0.034347	-0.195974	0
18060.2	-0.0355497	-0.195981	0
18060.2	-0.0365996	-0.195982	0
18060.2	-0.0377069	-0.195983	0
18060.2	-0.0388714	-0.19598	0
18060.2	-0.0399022	-0.19598	0
18060.2	-0.040914	-0.195985	0
18060.2	-0.0420785	-0.195978	0
18060.2	-0.0431094	-0.195983	0
18060.2	-0.044312	-0.195982	0
18060.2	-0.0455529	-0.195984	0
18060.2	-0.0467174	-0.195977	0
18060.2	-0.0478437	-0.195983	0
18060.2	-0.0488555	-0.195975	0
18060.2	-0.0500773	-0.195981	0
18060.2	-0.0511081	-0.195977	0
18060.2	-0.0522344	-0.195979	0
18060.2	-0.0533417	-0.195985	0
18060.2	-0.0543535	-0.195979	0
18060.2	-0.0554416	-0.195977	0
18060.2	-0.0565488	-0.195986	0
18060.2	-0.0577324	-0.195986	0
18060.2	-0.0587633	-0.195982	0
18060.2	-0.0599659	-0.195978	0
18060.2	-0.0609777	-0.19598	0
18060.2	-0.0620659	-0.195972	0
18060.2	-0.0632304	-0.195978	0
18060.2	-0.0642421	-0.195982	0
18060.2	-0.0652921	-0.195973	0
18060.3	-0.0664184	-0.195979	0
18060.3	-0.0674684	-0.195984	0
18060.3	-0.0685374	-0.19598	0
18060.3	-0.0696446	-0.195981	0
18060.3	-0.0707328	-0.195981	0
18060.3	-0.0718209	-0.195983	0
18060.3	-0.0729472	-0.195981	0
18060.3	-0.074169	-0.19598	0
18060.3	-0.0754099	-0.195982	0
18060.3	-0.0765744	-0.195979	0
18060.3	-0.0775861	-0.195977	0
18060.3	-0.0787315	-0.195977	0
18060.3	-0.0797624	-0.195978	0
18060.3	-0.0808887	-0.195979	0
18060.3	-0.0819578	-0.195981	0
18060.3	-0.083065	-0.195975	0
18060.3	-0.0841531	-0.195985	0
18060.3	-0.0851649	-0.195981	0
18060.3	-0.0861958	-0.195983	0
18060.3	-0.087303	-0.195979	0
18060.3	-0.088353	-0.195979	0
18060.3	-0.0895175	-0.195978	0
18060.3	-0.0907392	-0.195982	0
18060.3	-0.0918465	-0.195984	0
18060.3	-0.0929155	-0.195982	0
18060.3	-0.0940227	-0.195979	0
18060.3	-0.0950918	-0.195977	0
18060.3	-0.0961036	-0.195979	0
18060.3	-0.0971344	-0.195981	0
18060.3	-0.0982226	-0.195979	0
18060.3	-0.0992343	-0.195977	0
18060.3	-0.100322	-0.195984	0
18060.3	-0.10143	-0.195984	0
18060.3	-0.102499	-0.195977	0
18060.3	-0.103568	-0.195979	0
18060.3	-0.104675	-0.195986	0
18060.3	-0.105763	-0.195981	0
18060.3	-0.10687	-0.195984	0
18060.3	-0.107939	-0.195979	0
18060.3	-0.108989	-0.195977	0
18060.3	-0.110001	-0.195982	0
18060.3	-0.111185	-0.195984	0
18060.3	-0.112197	-0.195976	0
18060.3	-0.113323	-0.195981	0
18060.3	-0.114468	-0.195977	0
18060.3	-0.115499	-0.195977	0
18060.3	-0.11653	-0.195985	0
18060.3	-0.117637	-0.195986	0
18060.3	-0.118706	-0.195982	0
18060.3	-0.119775	-0.195983	0
18060.3	-0.120883	-0.195979	0
18060.3	-0.121932	-0.195981	0
18060.3	-0.122944	-0.195977	0
18060.3	-0.124032	-0.195977	0
18060.4	-0.125216	-0.195979	0
18060.4	-0.126228	-0.195971	0
18060.4	-0.12724	-0.195979	0
18060.4	-0.12827	-0.195981	0
18060.4	-0.129301	-0.195987	0
18060.4	-0.130409	-0.195974	0
18060.4	-0.131458	-0.195981	0
18060.4	-0.132489	-0.195979	0
18060.4	-0.133577	-0.195983	0
18060.4	-0.134627	-0.195981	0
18060.4	-0.135716	-0.195976	0
18060.4	-0.136766	-0.19598	0
18060.4	-0.137796	-0.195978	0
18060.4	-0.138846	-0.195984	0
18060.4	-0.139896	-0.195978	0
18060.4	-0.140965	-0.195975	0
18060.4	-0.142015	-0.195984	0
18060.4	-0.143027	-0.19598	0
18060.4	-0.144153	-0.195981	0
18060.4	-0.145222	-0.19598	0
18060.4	-0.146311	-0.195979	0
18060.4	-0.147361	-0.195974	0
18060.4	-0.148372	-0.195977	0
18060.4	-0.149499	-0.195979	0
18060.4	-0.150587	-0.195988	0
18060.4	-0.151637	-0.195982	0
18060.4	-0.152706	-0.195989	0
18060.4	-0.153756	-0.195979	0
18060.4	-0.154825	-0.195984	0
18060.4	-0.155856	-0.195986	0
18060.4	-0.156925	-0.195979	0
18060.4	-0.158032	-0.195982	0
18060.4	-0.159139	-0.19598	0
18060.4	-0.160208	-0.195977	0
18060.4	-0.161239	-0.195981	0
18060.5	-0.162327	-0.195982	0
18060.5	-0.163396	-0.195979	0
18060.5	-0.164446	-0.195977	0
18060.5	-0.165573	-0.195986	0
18060.5	-0.166584	-0.19598	0
18060.5	-0.167634	-0.195983	0
18060.5	-0.168665	-0.195977	0
18060.5	-0.169772	-0.195977	0
18060.5	-0.170784	-0.195982	0
18060.5	-0.171834	-0.195981	0
18060.5	-0.172846	-0.195979	0
18060.5	-0.173896	-0.195976	0
18060.5	-0.174908	-0.195977	0
18060.5	-0.175919	-0.195985	0
18060.5	-0.176988	-0.195978	0
18060.5	-0.178077	-0.195985	0
18060.5	-0.179279	-0.195979	0
18060.5	-0.180501	-0.195976	0
18060.5	-0.181532	-0.195981	0
18060.5	-0.182639	-0.195975	0
18060.5	-0.183727	-0.195979	0
18060.5	-0.184739	-0.195981	0
18060.6	-0.185884	-0.195982	0
18060.6	-0.186915	-0.195981	0
18060.6	-0.187927	-0.195985	0
18060.6	-0.188977	-0.195978	0
18060.6	-0.190008	-0.19598	0
18060.6	-0.191096	-0.195979	0
18060.6	-0.192165	-0.195986	0
18060.6	-0.193177	-0.195984	0
18060.6	-0.194189	-0.195981	0
18060.6	-0.195258	-0.195976	0
18060.6	-0.196289	-0.195982	0
18060.7	-0.195239	-0.195979	0
18060.7	-0.194208	-0.195982	0
18060.7	-0.1931	-0.195981	0
18060.7	-0.191974	-0.195981	0
18060.7	-0.190943	-0.195984	0
18060.7	-0.189798	-0.195981	0
18060.8	-0.188786	-0.195979	0
18060.8	-0.187736	-0.195988	0
18060.8	-0.186686	-0.195983	0
18060.8	-0.185674	-0.195981	0
18060.8	-0.184567	-0.195981	0
18060.8	-0.183422	-0.195982	0
18060.8	-0.182372	-0.195978	0
18060.8	-0.18136	-0.195978	0
18060.8	-0.180253	-0.195982	0
18060.8	-0.179165	-0.19598	0
18060.8	-0.178153	-0.195983	0
18060.8	-0.177122	-0.195982	0
18060.8	-0.176091	-0.195988	0
18060.8	-0.175041	-0.195977	0
18060.8	-0.173972	-0.195984	0
18060.8	-0.17296	-0.195984	0
18060.8	-0.17193	-0.195979	0
18060.8	-0.170899	-0.195979	0
18060.9	-0.169849	-0.195982	0
18060.9	-0.168837	-0.195982	0
18060.9	-0.167806	-0.195978	0
18060.9	-0.166756	-0.195981	0
18060.9	-0.165706	-0.195982	0
18060.9	-0.164637	-0.195982	0
18060.9	-0.163606	-0.195977	0
18060.9	-0.162575	-0.19598	0
18060.9	-0.161564	-0.195983	0
18060.9	-0.160533	-0.195984	0
18060.9	-0.159464	-0.195978	0
18060.9	-0.158414	-0.195984	0
18060.9	-0.157287	-0.195977	0
18060.9	-0.156276	-0.195991	0
18060.9	-0.155207	-0.195983	0
18061	-0.154176	-0.195983	0
18061	-0.153126	-0.195984	0
18061	-0.152095	-0.195984	0
18061	-0.150969	-0.195976	0
18061	-0.149957	-0.195982	0
18061	-0.14885	-0.195979	0
18061	-0.147838	-0.195981	0
18061	-0.146826	-0.195982	0
18061	-0.1457	-0.195979	0
18061	-0.144631	-0.195984	0
18061.1	-0.1436	-0.195982	0
18061.1	-0.142588	-0.195982	0
18061.1	-0.141538	-0.195981	0
18061.1	-0.140526	-0.195975	0
18061.1	-0.139457	-0.195984	0
18061.1	-0.138407	-0.195981	0
18061.2	-0.1373	-0.19598	0
18061.2	-0.136231	-0.195981	0
18061.2	-0.135219	-0.195981	0
18061.2	-0.134188	-0.195978	0
18061.3	-0.133157	-0.195987	0
18061.3	-0.132146	-0.195981	0
18061.3	-0.131077	-0.195982	0
18061.4	-0.130065	-0.195987	0
18061.4	-0.129053	-0.195981	0
18061.5	-0.128003	-0.195977	0
18061.6	-0.126953	-0.195977	0
18061.7	-0.125941	-0.195986	0
18061.9	-0.124872	-0.195982	0
18062.3	-0.123842	-0.195981	0
18063.1	-0.12283	-0.195983	0
18065.9	-0.121818	-0.195982	0
18075.9	-0.121322	-0.195983	0
18085.9	-0.12136	-0.195986	0
18095.9	-0.12136	-0.195984	0
18105.9	-0.121112	-0.195984	0
18115.9	-0.120978	-0.195984	0
18125.9	-0.120653	-0.195988	0
18135.9	-0.120348	-0.195977	0
18145.9	-0.119947	-0.195979	0
18155.9	-0.119394	-0.195985	0
18165.9	-0.118954	-0.195986	0
18175.9	-0.118458	-0.195981	0
18185.9	-0.117828	-0.195982	0
18195.9	-0.117427	-0.195983	0
18205.9	-0.116874	-0.195985	0
18215.9	-0.116244	-0.195986	0
18225.9	-0.115785	-0.195983	0
18235.9	-0.115289	-0.195986	0
18245.9	-0.114736	-0.195986	0
18255.9	-0.114144	-0.195987	0
18265.9	-0.113705	-0.195986	0
18275.9	-0.112998	-0.195981	0
18285.9	-0.112597	-0.195988	0
18295.9	-0.111967	-0.195989	0
18305.9	-0.111452	-0.195982	0
18315.9	-0.110937	-0.195981	0
18325.9	-0.110402	-0.195984	0
18335.9	-0.11002	-0.195985	0
18345.9	-0.109562	-0.195985	0
18355.9	-0.109085	-0.195982	0
18365.9	-0.108569	-0.195984	0
18375.9	-0.108264	-0.195982	0
18385.9	-0.107596	-0.195982	0
18395.9	-0.107539	-0.195979	0
18405.9	-0.107042	-0.195989	0
18415.9	-0.106679	-0.195985	0
18425.9	-0.106164	-0.195987	0
18435.9	-0.105859	-0.195983	0
18445.9	-0.105534	-0.195988	0
18455.9	-0.105038	-0.195984	0
18465.9	-0.104942	-0.195981	0
18475.9	-0.104331	-0.19599	0
18485.9	-0.104102	-0.195981	0
18495.9	-0.103663	-0.195984	0
18505.9	-0.103281	-0.195988	0
18515.9	-0.103052	-0.195987	0
18525.9	-0.102766	-0.195986	0
18535.9	-0.102346	-0.195986	0
18545.9	-0.102136	-0.195983	0
18555.9	-0.101773	-0.195979	0
18565.9	-0.101487	-0.195986	0
18575.9	-0.101277	-0.195986	0
18585.9	-0.101105	-0.195984	0
18595.9	-0.100666	-0.195987	0
18605.9	-0.100532	-0.195988	0
18615.9	-0.100246	-0.195985	0
18625.9	-0.100074	-0.195986	0
18635.9	-0.0997689	-0.195988	0
18645.9	-0.0995589	-0.195989	0
18655.9	-0.0993489	-0.195988	0
18665.9	-0.0990625	-0.195985	0
18675.9	-0.0988334	-0.195986	0
18685.9	-0.0986425	-0.195986	0
18695.9	-0.0983753	-0.195984	0
18705.9	-0.0982226	-0.195982	0
18715.9	-0.0980508	-0.195982	0
18725.9	-0.0977071	-0.19599	0
18735.9	-0.0975544	-0.195986	0
18745.9	-0.0974017	-0.195986	0
18755.9	-0.0973062	-0.19599	0
18765.9	-0.0971153	-0.195986	0
18775.9	-0.0968672	-0.195983	0
18785.9	-0.096619	-0.195981	0
18795.9	-0.0964663	-0.195986	0
18805.9	-0.0962563	-0.195983	0
18815.9	-0.096199	-0.195984	0
18825.9	-0.095989	-0.195986	0
18835.9	-0.0957027	-0.195986	0
18845.9	-0.0955309	-0.195983	0
18855.9	-0.0952827	-0.195986	0
18865.9	-0.0952063	-0.195982	0
18875.9	-0.0949009	-0.195981	0
18885.9	-0.0950154	-0.195991	0
18895.9	-0.0948436	-0.195984	0
18905.9	-0.0946718	-0.195988	0
18915.9	-0.0944809	-0.195986	0
18925.9	-0.0943854	-0.195981	0
18935.9	-0.09408	-0.195983	0
18945.9	-0.0941564	-0.195984	0
18955.9	-0.0937937	-0.195989	0
18965.9	-0.0937746	-0.195983	0
18975.9	-0.0935264	-0.195979	0
18985.9	-0.0935073	-0.195986	0
18995.9	-0.09324	-0.195986	0
19005.9	-0.0932209	-0.195986	0
19015.9	-0.0932209	-0.195986	0
19025.9	-0.0931446	-0.195982	0
19035.9	-0.0930873	-0.195986	0
19045.9	-0.0926864	-0.195994	0
19055.9	-0.0927055	-0.195981	0
19065.9	-0.0924573	-0.195985	0
19075.9	-0.0924573	-0.195985	0
19085.9	-0.0922855	-0.195984	0
19095.9	-0.0922664	-0.195988	0
19105.9	-0.0919992	-0.195987	0
19115.9	-0.0920183	-0.195983	0
19125.9	-0.091751	-0.195986	0
19135.9	-0.0916937	-0.195986	0
19145.9	-0.0916174	-0.195983	0
19155.9	-0.0915792	-0.195984	0
19165.9	-0.0913501	-0.195982	0
19175.9	-0.0911974	-0.195982	0
19185.9	-0.0910638	-0.195981	0
19195.9	-0.0910256	-0.195986	0
19205.9	-0.0908156	-0.195987	0
19215.9	-0.0907583	-0.195984	0
19225.9	-0.0907011	-0.195984	0
19235.9	-0.0904911	-0.195992	0
19245.9	-0.0903956	-0.195981	0
19255.9	-0.0904529	-0.195983	0
19265.9	-0.0901856	-0.195984	0
19275.9	-0.0900711	-0.195984	0
19285.9	-0.0899374	-0.195995	0
19295.9	-0.0898229	-0.195984	0
19305.9	-0.0898611	-0.195989	0
19315.9	-0.0897084	-0.195986	0
19325.9	-0.0894793	-0.195986	0
19335.9	-0.0894793	-0.195986	0
19345.9	-0.0894602	-0.195986	0
19355.9	-0.0892502	-0.195982	0
19365.9	-0.0891929	-0.195989	0
19375.9	-0.0891548	-0.195983	0
19385.9	-0.089002	-0.195986	0
19395.9	-0.0889066	-0.195985	0
19405.9	-0.089002	-0.195981	0
19415.9	-0.088792	-0.195987	0
19425.9	-0.088792	-0.195989	0
19435.9	-0.088563	-0.195988	0
19445.9	-0.088563	-0.195989	0
19455.9	-0.0884293	-0.195984	0
19465.9	-0.0883911	-0.195988	0
19475.9	-0.0882193	-0.195982	0
19485.9	-0.0881621	-0.195984	0
19495.9	-0.0882766	-0.195987	0
19505.9	-0.0880475	-0.195986	0
19515.9	-0.0880857	-0.195986	0
19525.9	-0.0878948	-0.19598	0
19535.9	-0.0878375	-0.195984	0
19545.9	-0.0876848	-0.195984	0
19555.9	-0.0876848	-0.195986	0
19565.9	-0.0874557	-0.195979	0
19575.9	-0.0874748	-0.195983	0
19585.9	-0.0873412	-0.19598	0
19595.9	-0.0872267	-0.195986	0
19605.9	-0.0872267	-0.195983	0
19615.9	-0.0871312	-0.195984	0
19625.9	-0.0869785	-0.195987	0
19635.9	-0.0871312	-0.195985	0
19645.9	-0.0870357	-0.195982	0
19655.9	-0.0869976	-0.195981	0
19665.9	-0.0868258	-0.195988	0
19675.9	-0.0867876	-0.19598	0
19685.9	-0.0866539	-0.195988	0
19695.9	-0.0865585	-0.195981	0
19705.9	-0.086444	-0.195979	0
19715.9	-0.0863867	-0.195982	0
19725.9	-0.0863294	-0.195984	0
19735.9	-0.0862721	-0.195988	0
19745.9	-0.0861385	-0.195982	0
19755.9	-0.0860812	-0.195987	0
19765.9	-0.0861003	-0.195984	0
19775.9	-0.0858712	-0.195984	0
19785.9	-0.0860431	-0.195987	0
19795.9	-0.085814	-0.195984	0
19805.9	-0.0857376	-0.195985	0
19815.9	-0.0855658	-0.195981	0
19825.9	-0.0855085	-0.195986	0
19835.9	-0.0854894	-0.195991	0
19845.9	-0.085394	-0.195986	0
19855.9	-0.0854322	-0.195981	0
19860.2	-0.0854704	-0.195982	0