File: EXPERIMENTAL/DATA/Electrochemical-cycling/I-cell_S-series/2024-06-14_S04_Icell_t0020_C0500_J01_deltaX-110,1mm_04_CP_C04.txt
time/s	Ewe/V	I/mA	error
80.2058	0.0314669	-0.194734	0
80.206	0.0245714	-0.195971	0
80.2062	0.0214153	-0.195981	0
80.2064	0.019869	-0.195984	0
80.2066	0.0187045	-0.195978	0
80.207	0.0171582	-0.195975	0
80.2074	0.0157455	-0.195981	0
80.2078	0.0144855	-0.195982	0
80.2082	0.0133783	-0.195975	0
80.2086	0.0120229	-0.195979	0
80.2092	0.0105912	-0.195977	0
80.2096	0.00952211	-0.19598	0
80.2102	0.00797581	-0.195978	0
80.2108	0.00667768	-0.195982	0
80.2112	0.0056659	-0.195985	0
80.2118	0.00442505	-0.195983	0
80.2124	0.00289784	-0.195982	0
80.213	0.00165698	-0.195981	0
80.2136	0.000473389	-0.195983	0
80.2142	-0.00084383	-0.195981	0
80.2148	-0.00202742	-0.19598	0
80.2154	-0.00321101	-0.195982	0
80.216	-0.00447095	-0.195984	0
80.2166	-0.00559727	-0.195982	0
80.2172	-0.00668541	-0.195984	0
80.2178	-0.00798354	-0.195978	0
80.2184	-0.00909076	-0.195981	0
80.2192	-0.0104271	-0.195984	0
80.2198	-0.0115343	-0.195984	0
80.2206	-0.012947	-0.195979	0
80.2212	-0.0139778	-0.195976	0
80.2218	-0.0151232	-0.195981	0
80.2226	-0.0164405	-0.195982	0
80.2234	-0.0176813	-0.195983	0
80.2242	-0.0191322	-0.195982	0
80.225	-0.0203921	-0.195979	0
80.2258	-0.0215375	-0.195988	0
80.2264	-0.0225684	-0.195982	0
80.2272	-0.0238283	-0.195981	0
80.228	-0.0248592	-0.195986	0
80.2286	-0.0258901	-0.19598	0
80.2294	-0.0271309	-0.195979	0
80.2302	-0.0282954	-0.195988	0
80.231	-0.0295363	-0.195981	0
80.2318	-0.0306053	-0.195983	0
80.2326	-0.0318462	-0.195979	0
80.2334	-0.0328961	-0.195978	0
80.2342	-0.0339079	-0.19598	0
80.235	-0.0350915	-0.195991	0
80.236	-0.0362942	-0.195985	0
80.2368	-0.037516	-0.195979	0
80.2378	-0.0386423	-0.195984	0
80.2386	-0.0397304	-0.195981	0
80.2394	-0.0407995	-0.195981	0
80.2402	-0.0418303	-0.195981	0
80.2412	-0.0429566	-0.195985	0
80.242	-0.0440257	-0.195986	0
80.243	-0.0450757	-0.195986	0
80.244	-0.0462592	-0.195985	0
80.2448	-0.0473092	-0.195981	0
80.2458	-0.048321	-0.19598	0
80.2468	-0.0494282	-0.195983	0
80.2478	-0.0505163	-0.195979	0
80.2488	-0.0516617	-0.195986	0
80.2498	-0.0526735	-0.195983	0
80.2508	-0.0538189	-0.19598	0
80.252	-0.0549262	-0.195981	0
80.253	-0.0560143	-0.195982	0
80.254	-0.0570261	-0.195985	0
80.255	-0.0580378	-0.195985	0
80.2562	-0.0591451	-0.195985	0
80.2572	-0.0602332	-0.19598	0
80.2586	-0.0612832	-0.195981	0
80.2596	-0.0623522	-0.195984	0
80.261	-0.0635549	-0.195982	0
80.2622	-0.0645858	-0.195977	0
80.2634	-0.0656357	-0.195977	0
80.2648	-0.0668002	-0.195982	0
80.266	-0.067812	-0.19598	0
80.2672	-0.0688238	-0.195981	0
80.2688	-0.0698928	-0.195982	0
80.27	-0.071	-0.195977	0
80.2714	-0.0720118	-0.195984	0
80.2728	-0.0730427	-0.195987	0
80.2744	-0.0740736	-0.195981	0
80.2758	-0.0750853	-0.195982	0
80.2772	-0.0761162	-0.195982	0
80.2788	-0.077128	-0.195982	0
80.2804	-0.0782543	-0.195982	0
80.282	-0.0792661	-0.195981	0
80.2836	-0.0802778	-0.195982	0
80.2854	-0.0813278	-0.195977	0
80.2872	-0.0823587	-0.195978	0
80.2888	-0.0833704	-0.195984	0
80.291	-0.0844968	-0.195986	0
80.293	-0.0856231	-0.195979	0
80.2952	-0.0867494	-0.19598	0
80.2972	-0.0877803	-0.195978	0
80.2994	-0.088792	-0.195981	0
80.3018	-0.089842	-0.195984	0
80.3038	-0.0908538	-0.195989	0
80.3062	-0.0918846	-0.195973	0
80.3086	-0.0929346	-0.195982	0
80.3108	-0.0939464	-0.195981	0
80.3136	-0.0950345	-0.195984	0
80.3164	-0.0961608	-0.195984	0
80.3194	-0.0972871	-0.195984	0
80.3224	-0.098318	-0.195985	0
80.3256	-0.0994443	-0.195979	0
80.3288	-0.100552	-0.19598	0
80.3322	-0.101659	-0.19598	0
80.3358	-0.102785	-0.195979	0
80.3398	-0.103854	-0.195981	0
80.343	-0.104885	-0.19598	0
80.347	-0.105935	-0.195979	0
80.351	-0.107004	-0.195985	0
80.3556	-0.108054	-0.195981	0
80.3598	-0.10918	-0.195985	0
80.3646	-0.110249	-0.195982	0
80.3696	-0.111299	-0.195976	0
80.375	-0.112349	-0.195984	0
80.38	-0.113418	-0.195986	0
80.3856	-0.114449	-0.195981	0
80.391	-0.115499	-0.195981	0
80.397	-0.116549	-0.195981	0
80.403	-0.117561	-0.195989	0
80.4096	-0.118668	-0.195984	0
80.4168	-0.119699	-0.195982	0
80.4234	-0.120768	-0.195981	0
80.4314	-0.121818	-0.195983	0
80.4392	-0.122906	-0.195979	0
80.447	-0.123994	-0.195984	0
80.4562	-0.125006	-0.195981	0
80.4646	-0.126018	-0.195982	0
80.4732	-0.12703	-0.195982	0
80.4832	-0.12808	-0.195979	0
80.4932	-0.129129	-0.195986	0
80.5042	-0.130199	-0.195982	0
80.5152	-0.131248	-0.195983	0
80.5262	-0.13226	-0.195975	0
80.5372	-0.133272	-0.195988	0
80.5494	-0.134341	-0.195979	0
80.562	-0.135391	-0.19598	0
80.5746	-0.13646	-0.195984	0
80.5882	-0.13751	-0.195984	0
80.6042	-0.138598	-0.195981	0
80.6178	-0.139648	-0.195979	0
80.6338	-0.140679	-0.195986	0
80.6496	-0.141691	-0.195985	0
80.6662	-0.142703	-0.195982	0
80.6828	-0.143714	-0.195981	0
80.7	-0.144745	-0.195984	0
80.7184	-0.145852	-0.195982	0
80.7394	-0.146883	-0.195984	0
80.7584	-0.147895	-0.195982	0
80.7816	-0.148945	-0.195984	0
80.8038	-0.150014	-0.195982	0
80.829	-0.151064	-0.195979	0
80.8532	-0.152095	-0.195981	0
80.8818	-0.153126	-0.195981	0
80.9124	-0.154157	-0.195985	0
80.945	-0.155187	-0.195979	0
80.9834	-0.156199	-0.195984	0
81.0302	-0.157211	-0.195985	0
81.093	-0.158242	-0.195984	0
81.357	-0.15723	-0.195976	0
81.4114	-0.156199	-0.195982	0
81.4614	-0.155187	-0.195982	0
81.5078	-0.154157	-0.19598	0
81.5502	-0.153126	-0.195982	0
81.5966	-0.152114	-0.195988	0
81.6348	-0.151045	-0.195983	0
81.684	-0.149976	-0.195977	0
81.7294	-0.148964	-0.195989	0
81.7758	-0.147952	-0.195982	0
81.8232	-0.146941	-0.19598	0
81.8676	-0.145929	-0.195986	0
81.9158	-0.144917	-0.195977	0
81.9756	-0.143905	-0.195982	0
82.033	-0.142874	-0.195988	0
82.1036	-0.141767	-0.195984	0
82.1752	-0.14066	-0.195981	0
82.2516	-0.13961	-0.195988	0
82.3346	-0.13856	-0.195983	0
82.433	-0.137548	-0.195985	0
82.532	-0.136498	-0.195978	0
82.6428	-0.135486	-0.195984	0
82.771	-0.134437	-0.195982	0
82.9102	-0.133406	-0.195981	0
83.0716	-0.132375	-0.195984	0
83.2728	-0.131344	-0.195977	0
83.4978	-0.130332	-0.19598	0
83.7656	-0.129301	-0.195987	0
84.1054	-0.12829	-0.195981	0
84.4874	-0.127278	-0.195984	0
84.9982	-0.126266	-0.195986	0
85.6238	-0.125254	-0.195982	0
86.5726	-0.124242	-0.195982	0
87.865	-0.123231	-0.195979	0
89.963	-0.122219	-0.195985	0
94.0894	-0.121207	-0.195988	0
104.089	-0.120692	-0.195987	0
114.089	-0.120367	-0.195984	0
124.089	-0.120291	-0.195984	0
134.089	-0.120062	-0.195981	0
144.089	-0.11968	-0.19598	0
154.089	-0.119451	-0.195984	0
164.089	-0.119107	-0.195982	0
174.089	-0.118687	-0.195988	0
184.089	-0.118153	-0.195988	0
194.089	-0.117542	-0.195984	0
204.089	-0.117255	-0.195992	0
214.089	-0.116606	-0.195986	0
224.089	-0.116129	-0.195982	0
234.089	-0.115404	-0.195989	0
244.089	-0.114946	-0.195988	0
254.089	-0.114449	-0.195989	0
264.089	-0.113724	-0.195985	0
274.089	-0.113151	-0.195981	0
284.089	-0.112597	-0.195989	0
294.089	-0.112139	-0.195993	0
304.089	-0.111796	-0.195988	0
314.089	-0.111032	-0.195984	0
324.089	-0.110631	-0.195992	0
334.089	-0.110268	-0.195979	0
344.089	-0.109753	-0.195982	0
354.089	-0.109276	-0.195986	0
364.089	-0.108856	-0.195984	0
374.089	-0.108474	-0.19599	0
384.089	-0.108092	-0.195984	0
394.089	-0.107691	-0.195989	0
404.089	-0.107424	-0.195991	0
414.089	-0.107023	-0.195986	0
424.089	-0.106603	-0.195985	0
434.089	-0.106298	-0.195982	0
444.089	-0.105973	-0.195982	0
454.089	-0.105668	-0.195989	0
464.089	-0.105362	-0.195986	0
474.089	-0.105095	-0.195984	0
484.089	-0.104923	-0.19598	0
494.089	-0.104656	-0.195982	0
504.089	-0.104331	-0.19598	0
514.089	-0.104007	-0.19599	0
524.089	-0.103778	-0.195982	0
534.089	-0.103625	-0.195982	0
544.089	-0.103243	-0.195981	0
554.089	-0.103091	-0.195981	0
564.089	-0.102881	-0.195984	0
574.089	-0.102556	-0.195984	0
584.089	-0.10248	-0.195986	0
594.089	-0.102231	-0.195988	0
604.089	-0.101926	-0.195988	0
614.089	-0.101754	-0.195986	0
624.089	-0.101449	-0.195985	0
634.089	-0.10143	-0.195984	0
644.089	-0.101143	-0.195983	0
654.089	-0.100972	-0.195986	0
664.089	-0.100972	-0.195986	0
674.089	-0.100628	-0.195987	0
684.089	-0.100437	-0.195987	0
694.089	-0.100322	-0.195985	0
704.089	-0.100208	-0.195981	0
714.089	-0.0999025	-0.195989	0
724.089	-0.0997307	-0.195989	0
734.089	-0.099578	-0.195987	0
744.089	-0.0995016	-0.195986	0
754.089	-0.0992725	-0.195984	0
764.089	-0.0990816	-0.195989	0
774.089	-0.0989289	-0.195988	0
784.089	-0.0988334	-0.195986	0
794.089	-0.0986807	-0.195984	0
804.089	-0.0984135	-0.195986	0
814.089	-0.0983562	-0.195984	0
824.089	-0.0980889	-0.195989	0
834.089	-0.0981844	-0.195987	0
844.089	-0.0978789	-0.195985	0
854.089	-0.0978026	-0.195988	0
864.089	-0.0977071	-0.195986	0
874.089	-0.0975353	-0.195984	0
884.089	-0.0973826	-0.195984	0
894.089	-0.0972681	-0.195988	0
904.089	-0.0972108	-0.195985	0
914.089	-0.0969626	-0.195986	0
924.089	-0.0968672	-0.195982	0
934.089	-0.0968481	-0.195982	0
944.089	-0.0965999	-0.195986	0
954.089	-0.0966381	-0.195988	0
964.089	-0.0964281	-0.195989	0
974.089	-0.0963136	-0.195981	0
984.089	-0.096199	-0.195985	0
994.089	-0.095989	-0.19598	0
1004.09	-0.0958172	-0.195985	0
1014.09	-0.0957599	-0.195983	0
1024.09	-0.0957408	-0.195985	0
1034.09	-0.0955499	-0.195989	0
1044.09	-0.0954354	-0.195984	0
1054.09	-0.0953018	-0.195987	0
1064.09	-0.0952827	-0.195989	0
1074.09	-0.0949963	-0.195989	0
1084.09	-0.0950727	-0.195988	0
1094.09	-0.0948054	-0.195984	0
1104.09	-0.0948054	-0.195985	0
1114.09	-0.0947672	-0.195989	0
1124.09	-0.0947291	-0.195987	0
1134.09	-0.0945	-0.195988	0
1144.09	-0.0943664	-0.195984	0
1154.09	-0.0942136	-0.195983	0
1164.09	-0.0941373	-0.195988	0
1174.09	-0.0940036	-0.195982	0
1184.09	-0.09387	-0.195982	0
1194.09	-0.0939082	-0.195985	0
1204.09	-0.09366	-0.195986	0
1214.09	-0.0935264	-0.195984	0
1224.09	-0.0935646	-0.195981	0
1234.09	-0.0934309	-0.195982	0
1244.09	-0.0933355	-0.195976	0
1254.09	-0.0933737	-0.195989	0
1264.09	-0.0932591	-0.195986	0
1274.09	-0.0931446	-0.195982	0
1284.09	-0.0928582	-0.195986	0
1294.09	-0.0928582	-0.195982	0
1304.09	-0.0927819	-0.195984	0
1314.09	-0.0926864	-0.195983	0
1324.09	-0.092591	-0.195979	0
1334.09	-0.092381	-0.195977	0
1344.09	-0.0924001	-0.195978	0
1354.09	-0.0922283	-0.195988	0
1364.09	-0.0921328	-0.195981	0
1374.09	-0.0922855	-0.195984	0
1384.09	-0.0919801	-0.195988	0
1394.09	-0.0918465	-0.195979	0
1404.09	-0.0918274	-0.195984	0
1414.09	-0.0917319	-0.195982	0
1424.09	-0.0915219	-0.19599	0
1434.09	-0.0915983	-0.195986	0
1444.09	-0.0915219	-0.195986	0
1454.09	-0.0912547	-0.195984	0
1464.09	-0.0912928	-0.195981	0
1474.09	-0.0910829	-0.195983	0
1484.09	-0.0910256	-0.195986	0
1494.09	-0.0909683	-0.195988	0
1504.09	-0.0909492	-0.195982	0
1514.09	-0.0908156	-0.195994	0
1524.09	-0.0908156	-0.195979	0
1534.09	-0.0906056	-0.195987	0
1544.09	-0.0905483	-0.195977	0
1554.09	-0.0905292	-0.195983	0
1564.09	-0.0903956	-0.195983	0
1574.09	-0.0903383	-0.195986	0
1584.09	-0.0901474	-0.195988	0
1594.09	-0.0901283	-0.195984	0
1604.09	-0.0901093	-0.195986	0
1614.09	-0.089842	-0.195988	0
1624.09	-0.0899756	-0.195982	0
1634.09	-0.0897656	-0.195984	0
1644.09	-0.0897275	-0.195988	0
1654.09	-0.0894793	-0.195991	0
1664.09	-0.0895366	-0.195987	0
1674.09	-0.0894411	-0.195988	0
1684.09	-0.0894029	-0.19599	0
1694.09	-0.089212	-0.195988	0
1704.09	-0.0891738	-0.195986	0
1714.09	-0.0891738	-0.195984	0
1724.09	-0.0889829	-0.195986	0
1734.09	-0.0890975	-0.195989	0
1744.09	-0.0889066	-0.195982	0
1754.09	-0.0888875	-0.195987	0
1764.09	-0.0887157	-0.195983	0
1774.09	-0.0885248	-0.19599	0
1784.09	-0.0885439	-0.195987	0
1794.09	-0.0883721	-0.195989	0
1804.09	-0.0884484	-0.195982	0
1814.09	-0.0882575	-0.195991	0
1824.09	-0.0881048	-0.195995	0
1834.09	-0.0882002	-0.195991	0
1844.09	-0.0880666	-0.195986	0
1854.09	-0.0880093	-0.195988	0
1864.09	-0.0878184	-0.195985	0
1874.09	-0.0877612	-0.195986	0
1880.21	-0.0877039	-0.195986	0