File: EXPERIMENTAL/DATA/Cycling data Master thesis/I-cell/2024-04-26_JP-measurements_sample-A6-03_M-cell_Cu-Li-Cellgard2400-separator_25muL-LiFSI-in-DME_outside-glovebox_sigma-0.002_added-OCV-0.1s_Deltax110.2mm_04_CP_C01.txt
time/s	Ewe/V	I/mA	error
395.472	-0.089948	-1.94484	0
395.473	-0.174065	-1.95951	0
395.473	-0.190312	-1.95955	0
395.474	-0.202167	-1.95958	0
395.475	-0.212152	-1.95952	0
395.475	-0.221507	-1.9596	0
395.476	-0.22983	-1.95968	0
395.476	-0.2376	-1.95959	0
395.477	-0.244893	-1.9596	0
395.478	-0.251556	-1.9596	0
395.478	-0.257799	-1.9596	0
395.479	-0.263736	-1.95957	0
395.479	-0.269253	-1.95964	0
395.48	-0.274561	-1.95964	0
395.481	-0.279601	-1.95962	0
395.481	-0.284259	-1.95951	0
395.482	-0.288707	-1.95957	0
395.482	-0.292926	-1.9596	0
395.483	-0.297012	-1.95965	0
395.484	-0.300792	-1.95959	0
395.484	-0.304438	-1.95957	0
395.485	-0.307932	-1.9596	0
395.485	-0.311234	-1.95958	0
395.486	-0.315377	-1.9596	0
395.487	-0.321047	-1.95964	0
395.489	-0.326354	-1.95965	0
395.49	-0.331146	-1.95961	0
395.491	-0.335633	-1.95961	0
395.492	-0.339737	-1.95957	0
395.494	-0.343899	-1.95963	0
395.495	-0.347946	-1.95967	0
395.497	-0.352433	-1.95962	0
395.499	-0.356404	-1.95965	0
395.5	-0.359897	-1.95962	0
395.502	-0.363353	-1.95963	0
395.505	-0.366827	-1.95961	0
395.507	-0.370054	-1.95964	0
395.511	-0.37328	-1.95963	0
395.515	-0.376507	-1.95964	0
395.52	-0.379676	-1.95958	0
395.528	-0.382864	-1.95961	0
395.552	-0.383857	-1.95967	0
395.567	-0.380535	-1.95962	0
395.579	-0.377251	-1.95964	0
395.589	-0.373968	-1.95958	0
395.6	-0.370779	-1.95964	0
395.612	-0.367591	-1.9596	0
395.626	-0.364269	-1.95961	0
395.642	-0.361196	-1.9596	0
395.67	-0.358122	-1.95971	0
395.771	-0.361406	-1.95964	0
395.81	-0.364517	-1.9596	0
395.845	-0.367648	-1.95965	0
395.88	-0.370741	-1.95964	0
395.917	-0.373872	-1.95964	0
395.956	-0.377022	-1.9596	0
395.997	-0.380153	-1.95958	0
396.04	-0.383437	-1.95964	0
396.086	-0.38651	-1.95961	0
396.134	-0.389718	-1.95964	0
396.187	-0.392791	-1.95963	0
396.242	-0.395865	-1.9596	0
396.304	-0.398939	-1.95959	0
396.369	-0.401993	-1.95962	0
396.443	-0.405258	-1.9597	0
396.524	-0.40835	-1.95965	0
396.614	-0.411424	-1.95959	0
396.713	-0.414498	-1.95962	0
396.827	-0.417724	-1.95964	0
396.954	-0.420779	-1.95958	0
397.099	-0.423833	-1.95964	0
397.267	-0.426945	-1.95968	0
397.454	-0.43	-1.95964	0
397.69	-0.43315	-1.95955	0
397.946	-0.436242	-1.95959	0
398.239	-0.439297	-1.95958	0
398.596	-0.442333	-1.95958	0
398.993	-0.445387	-1.95965	0
399.453	-0.448442	-1.95965	0
399.974	-0.451496	-1.95965	0
400.572	-0.454589	-1.95972	0
401.276	-0.457663	-1.95965	0
402.082	-0.460717	-1.95961	0
403.007	-0.463772	-1.95967	0
404.019	-0.466826	-1.95967	0
405.111	-0.469881	-1.95965	0
406.253	-0.472974	-1.95966	0
407.374	-0.476009	-1.95964	0
408.457	-0.479121	-1.95965	0
409.536	-0.482156	-1.95969	0
410.567	-0.485211	-1.95961	0
411.587	-0.488304	-1.95963	0
412.724	-0.491454	-1.95965	0
413.707	-0.494527	-1.95961	0
414.754	-0.497658	-1.95969	0
415.862	-0.500827	-1.95965	0
417.023	-0.503882	-1.95962	0
418.259	-0.506956	-1.95958	0
419.672	-0.510106	-1.95965	0
421.439	-0.513256	-1.95969	0
423.851	-0.516348	-1.95967	0
431.665	-0.516597	-1.95964	0
434.22	-0.513523	-1.95969	0
436.045	-0.510468	-1.95966	0
437.556	-0.507395	-1.95965	0
438.893	-0.504359	-1.95966	0
440.133	-0.501266	-1.95965	0
441.275	-0.498193	-1.95968	0
442.342	-0.495138	-1.95965	0
443.444	-0.492046	-1.95963	0
444.389	-0.48901	-1.95964	0
445.343	-0.485803	-1.95972	0
446.302	-0.482748	-1.95964	0
447.214	-0.479655	-1.95964	0
448.119	-0.476563	-1.95965	0
448.999	-0.473508	-1.95965	0
449.879	-0.470434	-1.95966	0
450.743	-0.46738	-1.95961	0
451.637	-0.464344	-1.95966	0
452.487	-0.461271	-1.95973	0
453.407	-0.458197	-1.9596	0
454.32	-0.455123	-1.95965	0
455.232	-0.45205	-1.95964	0
456.119	-0.448995	-1.95965	0
457.031	-0.445883	-1.95965	0
457.962	-0.442791	-1.95963	0
458.933	-0.439698	-1.95965	0
459.872	-0.436662	-1.95969	0
460.86	-0.43357	-1.95971	0
461.859	-0.430477	-1.95964	0
462.868	-0.427403	-1.95971	0
463.916	-0.424291	-1.95968	0
464.948	-0.421256	-1.95964	0
466.013	-0.418182	-1.95959	0
467.089	-0.415147	-1.95963	0
468.173	-0.412092	-1.95968	0
469.295	-0.409038	-1.95964	0
470.43	-0.405926	-1.95972	0
471.577	-0.402833	-1.95966	0
472.818	-0.39974	-1.95967	0
474.007	-0.396686	-1.95967	0
475.206	-0.393574	-1.9597	0
476.405	-0.3905	-1.95967	0
477.624	-0.387389	-1.95966	0
478.843	-0.384334	-1.95964	0
480.056	-0.38126	-1.95964	0
481.259	-0.378225	-1.95963	0
482.441	-0.375151	-1.95967	0
483.63	-0.372039	-1.95967	0
484.804	-0.369004	-1.95968	0
485.962	-0.365911	-1.95974	0
486.13	-0.36383	-1.95967	0
486.209	-0.364403	-1.95967	0
486.27	-0.365033	-1.95966	0
487.089	-0.361234	-1.95972	0
487.347	-0.360776	-1.95971	0
487.726	-0.360203	-1.95971	0
487.817	-0.359134	-1.95967	0
488.218	-0.357377	-1.95965	0
488.27	-0.356404	-1.95958	0
488.546	-0.355392	-1.95965	0
488.864	-0.351211	-1.95967	0
488.901	-0.34661	-1.95959	0
488.904	-0.346858	-1.95967	0
488.913	-0.343403	-1.95967	0
488.923	-0.346782	-1.9597	0
488.934	-0.347832	-1.95963	0
488.946	-0.350982	-1.95969	0
488.977	-0.350428	-1.95962	0
489.013	-0.347011	-1.95971	0
489.021	-0.342295	-1.9597	0
489.026	-0.338802	-1.95972	0
489.057	-0.339852	-1.95966	0
489.071	-0.343002	-1.95969	0
489.075	-0.346591	-1.95968	0
489.092	-0.347336	-1.95972	0
489.145	-0.346171	-1.95971	0
489.198	-0.346744	-1.95965	0
489.26	-0.344586	-1.95975	0
489.319	-0.343536	-1.95961	0
489.358	-0.346629	-1.9597	0
489.397	-0.345369	-1.95974	0
489.418	-0.343345	-1.95962	0
489.428	-0.346457	-1.95971	0
489.439	-0.343441	-1.95965	0
489.462	-0.346706	-1.95962	0
489.466	-0.341245	-1.95964	0
489.506	-0.339489	-1.95971	0
489.519	-0.342677	-1.9597	0
489.533	-0.343059	-1.95968	0
489.579	-0.34073	-1.95968	0
489.635	-0.340329	-1.95963	0
489.667	-0.34346	-1.95965	0
489.704	-0.344166	-1.95974	0
489.75	-0.340081	-1.95965	0
489.795	-0.343441	-1.95974	0
489.811	-0.342315	-1.95968	0
489.843	-0.341245	-1.95959	0
489.882	-0.342334	-1.95958	0
489.918	-0.343116	-1.95973	0
489.944	-0.337504	-1.95969	0
489.959	-0.334048	-1.95974	0
489.991	-0.337618	-1.95968	0
490.015	-0.337351	-1.95969	0
490.06	-0.337122	-1.95967	0
490.083	-0.339394	-1.95967	0
490.125	-0.338344	-1.95975	0
490.155	-0.334182	-1.9597	0
490.199	-0.335614	-1.9597	0
490.225	-0.335976	-1.95967	0
490.234	-0.337294	-1.95972	0
490.245	-0.335155	-1.95966	0
490.26	-0.334373	-1.95971	0
490.3	-0.334373	-1.95968	0
490.321	-0.328951	-1.95967	0
490.34	-0.323854	-1.95967	0
490.363	-0.322784	-1.95967	0
490.38	-0.323815	-1.95968	0
490.424	-0.32708	-1.95963	0
490.455	-0.327156	-1.95969	0
490.478	-0.330822	-1.95966	0
490.502	-0.327595	-1.9597	0
490.521	-0.328244	-1.95969	0
490.532	-0.325572	-1.95967	0
490.573	-0.328836	-1.95963	0
490.594	-0.32855	-1.95973	0
490.607	-0.321066	-1.9597	0
490.625	-0.322097	-1.95971	0
490.63	-0.323548	-1.95967	0
490.634	-0.323357	-1.95967	0
490.641	-0.324388	-1.95971	0
490.663	-0.325324	-1.9597	0
490.669	-0.328569	-1.95965	0
490.678	-0.327194	-1.95969	0
490.702	-0.321295	-1.95965	0
490.71	-0.324598	-1.95965	0
490.734	-0.321773	-1.95967	0
490.755	-0.321658	-1.95965	0
490.772	-0.319386	-1.95967	0
490.793	-0.319711	-1.95972	0
490.805	-0.323166	-1.95965	0
490.81	-0.326335	-1.95968	0
490.817	-0.323453	-1.95966	0
490.826	-0.324598	-1.95958	0
490.833	-0.326507	-1.95972	0
490.839	-0.321486	-1.95971	0
490.856	-0.317916	-1.95972	0
490.859	-0.314117	-1.95974	0
490.867	-0.312227	-1.95964	0
490.885	-0.313258	-1.9596	0
490.931	-0.316714	-1.95969	0
490.945	-0.314174	-1.95964	0
490.957	-0.315301	-1.95965	0
490.982	-0.314251	-1.95964	0
490.992	-0.30797	-1.95963	0
491.015	-0.304743	-1.95964	0
491.038	-0.306061	-1.95965	0
491.069	-0.307359	-1.95965	0
491.09	-0.307989	-1.95967	0
491.117	-0.308963	-1.95967	0
491.13	-0.310127	-1.95967	0
491.16	-0.311368	-1.95965	0
491.186	-0.309535	-1.95965	0
491.198	-0.311406	-1.95968	0
491.205	-0.310356	-1.95965	0
491.223	-0.308905	-1.95968	0
491.24	-0.307015	-1.95971	0
491.261	-0.303121	-1.95966	0
491.274	-0.299875	-1.95969	0
491.286	-0.301326	-1.95966	0
491.291	-0.302911	-1.95969	0
491.312	-0.303579	-1.95968	0
491.338	-0.306863	-1.95967	0
491.352	-0.310165	-1.95967	0
491.371	-0.307951	-1.95969	0
491.4	-0.306805	-1.95963	0
491.433	-0.30776	-1.95964	0
491.468	-0.308638	-1.9597	0
491.475	-0.305259	-1.95971	0
491.496	-0.306099	-1.95962	0
491.521	-0.301746	-1.95968	0
491.544	-0.304877	-1.95971	0
491.557	-0.308123	-1.95966	0
491.571	-0.308753	-1.95971	0
491.6	-0.309211	-1.9597	0
491.613	-0.309707	-1.95967	0
491.638	-0.307989	-1.95962	0
491.658	-0.304724	-1.95969	0
491.693	-0.307817	-1.95967	0
491.723	-0.308829	-1.9597	0
491.745	-0.30965	-1.95967	0
491.804	-0.305679	-1.95967	0
491.82	-0.302109	-1.95968	0
491.83	-0.301173	-1.95969	0
491.847	-0.302223	-1.95971	0
491.861	-0.297432	-1.95969	0
491.892	-0.298711	-1.95967	0
491.902	-0.300009	-1.95969	0
491.911	-0.303331	-1.95964	0
491.938	-0.301498	-1.95975	0
491.952	-0.297661	-1.95971	0
491.974	-0.298119	-1.95971	0
492.01	-0.296534	-1.95969	0
492.038	-0.297202	-1.9597	0
492.062	-0.297985	-1.95964	0
492.064	-0.295045	-1.95967	0
492.087	-0.292888	-1.95965	0
492.105	-0.290177	-1.95969	0
492.116	-0.288879	-1.95965	0
492.126	-0.292143	-1.95973	0
492.134	-0.293365	-1.95971	0
492.147	-0.29642	-1.95967	0
492.161	-0.299684	-1.95968	0
492.184	-0.302796	-1.95968	0
492.205	-0.303426	-1.95976	0
492.21	-0.298825	-1.95967	0
492.23	-0.295561	-1.95968	0
492.248	-0.290712	-1.95966	0
492.267	-0.287199	-1.95969	0
492.292	-0.285881	-1.95962	0
492.309	-0.280899	-1.95972	0
492.33	-0.27941	-1.9597	0
492.343	-0.275038	-1.95971	0
492.363	-0.278398	-1.95967	0
492.387	-0.276794	-1.95971	0
492.402	-0.279944	-1.95969	0
492.427	-0.281128	-1.95959	0
492.444	-0.282216	-1.95971	0
492.463	-0.285614	-1.95968	0
492.473	-0.287122	-1.95964	0
492.511	-0.290521	-1.95968	0
492.547	-0.289146	-1.95967	0
492.557	-0.28802	-1.95971	0
492.576	-0.286989	-1.95961	0
492.58	-0.283514	-1.95972	0
492.603	-0.284851	-1.95965	0
492.641	-0.285939	-1.95965	0
492.666	-0.289165	-1.95971	0
492.674	-0.28529	-1.95965	0
492.706	-0.284182	-1.95961	0
492.711	-0.288382	-1.95965	0
492.717	-0.288631	-1.95962	0
492.734	-0.284106	-1.95964	0
492.747	-0.284851	-1.95969	0
492.765	-0.279448	-1.95964	0
492.779	-0.275744	-1.95966	0
492.806	-0.27479	-1.9597	0
492.821	-0.278054	-1.95969	0
492.834	-0.279467	-1.95969	0
492.87	-0.277768	-1.95963	0
492.877	-0.276718	-1.95965	0
492.878	-0.275591	-1.95967	0
492.89	-0.274541	-1.95965	0
492.901	-0.270838	-1.95967	0
492.927	-0.266638	-1.95976	0
492.935	-0.263163	-1.95969	0
492.949	-0.260968	-1.95969	0
492.956	-0.264576	-1.95965	0
493	-0.26427	-1.95963	0
493.012	-0.261197	-1.95965	0
493.018	-0.2624	-1.95958	0
493.054	-0.263411	-1.95969	0
493.065	-0.266657	-1.95972	0
493.073	-0.262915	-1.95962	0
493.084	-0.261579	-1.95969	0
493.094	-0.265378	-1.95967	0
493.107	-0.26849	-1.95962	0
493.122	-0.26973	-1.95967	0
493.14	-0.270895	-1.95967	0
493.15	-0.266829	-1.95972	0
493.168	-0.263507	-1.95967	0
493.194	-0.262132	-1.95971	0
493.205	-0.26322	-1.95969	0
493.221	-0.263908	-1.95968	0
493.234	-0.265397	-1.95964	0
493.236	-0.261693	-1.95967	0
493.253	-0.256939	-1.95965	0
493.265	-0.258333	-1.95967	0
493.28	-0.26175	-1.95964	0
493.29	-0.260891	-1.95967	0
493.314	-0.259479	-1.95965	0
493.333	-0.262743	-1.95963	0
493.356	-0.263679	-1.95968	0
493.379	-0.259402	-1.95962	0
493.425	-0.262705	-1.95967	0
493.446	-0.263602	-1.95967	0
493.461	-0.264309	-1.95969	0
493.487	-0.263049	-1.95967	0
493.516	-0.261273	-1.95969	0
493.527	-0.256863	-1.95967	0
493.54	-0.25377	-1.95966	0
493.556	-0.251823	-1.9596	0
493.602	-0.255088	-1.95971	0
493.62	-0.255813	-1.95967	0
493.643	-0.256939	-1.95971	0
493.659	-0.253121	-1.95967	0
493.714	-0.256195	-1.95969	0
493.75	-0.259421	-1.95963	0
493.763	-0.259822	-1.95972	0
493.79	-0.260853	-1.95964	0
493.808	-0.257398	-1.95962	0
493.827	-0.256367	-1.95967	0
493.858	-0.257531	-1.95966	0
493.874	-0.255431	-1.95971	0
493.884	-0.251174	-1.95971	0
493.923	-0.254267	-1.95966	0
493.939	-0.255298	-1.95962	0
493.965	-0.258791	-1.95961	0
494.007	-0.257455	-1.9596	0
494.016	-0.255489	-1.95971	0
494.02	-0.252129	-1.95971	0
494.065	-0.253159	-1.95963	0
494.069	-0.251766	-1.95966	0
494.097	-0.252873	-1.95967	0
494.112	-0.251269	-1.95967	0
494.129	-0.254362	-1.95969	0
494.159	-0.252969	-1.9597	0
494.178	-0.253713	-1.95972	0
494.184	-0.252739	-1.95965	0
494.198	-0.253961	-1.95967	0
494.222	-0.252873	-1.95967	0
494.26	-0.253331	-1.95972	0
494.287	-0.256787	-1.95967	0
494.315	-0.257569	-1.95978	0
494.347	-0.256214	-1.95969	0
494.367	-0.250296	-1.95964	0
494.396	-0.251327	-1.95971	0
494.416	-0.250563	-1.95966	0
494.449	-0.24978	-1.95966	0
494.462	-0.250945	-1.9596	0
494.476	-0.255317	-1.95958	0
494.5	-0.252529	-1.95965	0
494.512	-0.250964	-1.95963	0
494.54	-0.247146	-1.95967	0
494.567	-0.247585	-1.9597	0
494.594	-0.248616	-1.95965	0
494.609	-0.251842	-1.95964	0
494.618	-0.252606	-1.95967	0
494.645	-0.24894	-1.95969	0
494.661	-0.247833	-1.95967	0
494.674	-0.243251	-1.95963	0
494.707	-0.244301	-1.95958	0
494.722	-0.247432	-1.95964	0
494.737	-0.250601	-1.95962	0
494.765	-0.248902	-1.95969	0
494.8	-0.244588	-1.95964	0
494.829	-0.244988	-1.95969	0
494.855	-0.246134	-1.95965	0
494.871	-0.249303	-1.95967	0
494.891	-0.252606	-1.95968	0
494.908	-0.251518	-1.95964	0
494.925	-0.249666	-1.95972	0
494.943	-0.2481	-1.95966	0
495.033	-0.246955	-1.95967	0
495.052	-0.248005	-1.95965	0
495.1	-0.24663	-1.95971	0
495.131	-0.24306	-1.95964	0
495.169	-0.244225	-1.95964	0
495.212	-0.242354	-1.9596	0
495.244	-0.243805	-1.95962	0
495.255	-0.240158	-1.95972	0
495.309	-0.238459	-1.95965	0
495.327	-0.242201	-1.95964	0
495.353	-0.245332	-1.95961	0
495.379	-0.243843	-1.9596	0
495.405	-0.239929	-1.95968	0
495.437	-0.23592	-1.95964	0
495.453	-0.231988	-1.95969	0
495.482	-0.232961	-1.9597	0
495.502	-0.233801	-1.95966	0
495.52	-0.234679	-1.95965	0
495.56	-0.233038	-1.95969	0
495.593	-0.231167	-1.9597	0
495.63	-0.234546	-1.95965	0
495.659	-0.237658	-1.95969	0
495.712	-0.238803	-1.95965	0
495.813	-0.239891	-1.95958	0
495.879	-0.239032	-1.95967	0
495.889	-0.235615	-1.95973	0
495.912	-0.238669	-1.95971	0
495.94	-0.235443	-1.95966	0
495.993	-0.234336	-1.9597	0
496.03	-0.233248	-1.95966	0
496.051	-0.229849	-1.95966	0
496.107	-0.232999	-1.95965	0
496.175	-0.231148	-1.95972	0
496.207	-0.23214	-1.95969	0
496.22	-0.228475	-1.95967	0
496.23	-0.224886	-1.95975	0
496.27	-0.221774	-1.9597	0
496.299	-0.224943	-1.95959	0
496.322	-0.222843	-1.95969	0
496.365	-0.226107	-1.95962	0
496.372	-0.224542	-1.95975	0
496.424	-0.222709	-1.95964	0
496.501	-0.22584	-1.95971	0
496.533	-0.229315	-1.95971	0
496.574	-0.22542	-1.95965	0
496.594	-0.221201	-1.95969	0
496.597	-0.216027	-1.95971	0
496.605	-0.214748	-1.95965	0
496.614	-0.214462	-1.9597	0
496.651	-0.21324	-1.95967	0
496.69	-0.214271	-1.95964	0
496.7	-0.210968	-1.95964	0
496.722	-0.209937	-1.95959	0
496.751	-0.210548	-1.95965	0
496.773	-0.209269	-1.95965	0
496.827	-0.210376	-1.95965	0
496.844	-0.20715	-1.95965	0
496.858	-0.205986	-1.95962	0
496.89	-0.204344	-1.95974	0
496.927	-0.207723	-1.95967	0
496.985	-0.21114	-1.95969	0
497.023	-0.212076	-1.95966	0
497.061	-0.215245	-1.95965	0
497.14	-0.212648	-1.95961	0
497.184	-0.213679	-1.95965	0
497.211	-0.21156	-1.95963	0
497.25	-0.210434	-1.95964	0
497.271	-0.207341	-1.95965	0
497.292	-0.209136	-1.95971	0
497.369	-0.207456	-1.95969	0
497.394	-0.206024	-1.95962	0
497.467	-0.203924	-1.95962	0
497.485	-0.202836	-1.95968	0
497.523	-0.203828	-1.95966	0
497.543	-0.207016	-1.9597	0
497.566	-0.208009	-1.95964	0
497.581	-0.206539	-1.95967	0
497.597	-0.205031	-1.95963	0
497.625	-0.200888	-1.95973	0
497.657	-0.204019	-1.9596	0
497.682	-0.202988	-1.95972	0
497.747	-0.201633	-1.95959	0
497.794	-0.200545	-1.95973	0
497.874	-0.203676	-1.9597	0
497.921	-0.204649	-1.95968	0
498.002	-0.203561	-1.95965	0
498.013	-0.199953	-1.95968	0
498.08	-0.201575	-1.95966	0
498.09	-0.197681	-1.95969	0
498.114	-0.194607	-1.95967	0
498.135	-0.196096	-1.95962	0
498.211	-0.194626	-1.95969	0
498.235	-0.197815	-1.95972	0
498.265	-0.201442	-1.95964	0
498.306	-0.200125	-1.95967	0
498.35	-0.198387	-1.95965	0
498.409	-0.195161	-1.95967	0
498.56	-0.196325	-1.95974	0
498.584	-0.197528	-1.95972	0
498.622	-0.198597	-1.95969	0
498.658	-0.195352	-1.95968	0
498.718	-0.191476	-1.95964	0
498.762	-0.193061	-1.95964	0
498.798	-0.196192	-1.95967	0
498.847	-0.194855	-1.95969	0
498.919	-0.195905	-1.95964	0
498.922	-0.194817	-1.95962	0
498.966	-0.196039	-1.95962	0
499.021	-0.194168	-1.95965	0
499.115	-0.190083	-1.95971	0
499.137	-0.191228	-1.95966	0
499.179	-0.194397	-1.95971	0
499.231	-0.195505	-1.95961	0
499.253	-0.196955	-1.95962	0
499.276	-0.195734	-1.95964	0
499.338	-0.19749	-1.95964	0
499.381	-0.196173	-1.95967	0
499.425	-0.196917	-1.95965	0
499.459	-0.195791	-1.95966	0
499.513	-0.192412	-1.95969	0
499.559	-0.193195	-1.95969	0
499.581	-0.190006	-1.95968	0
499.624	-0.186684	-1.95967	0
499.698	-0.189758	-1.95963	0
499.764	-0.190694	-1.95973	0
499.807	-0.191686	-1.95964	0
499.835	-0.192736	-1.95964	0
499.977	-0.1935	-1.95967	0
500.026	-0.194855	-1.95967	0
500.06	-0.193958	-1.95965	0
500.106	-0.194932	-1.95967	0
500.152	-0.195905	-1.95965	0
500.176	-0.194435	-1.95966	0
500.224	-0.190694	-1.95969	0
500.299	-0.193805	-1.95968	0
500.318	-0.194703	-1.95965	0
500.341	-0.193271	-1.95965	0
500.407	-0.194206	-1.95965	0
500.434	-0.192603	-1.95967	0
500.496	-0.193653	-1.95965	0
500.562	-0.190465	-1.95967	0
500.621	-0.19161	-1.95969	0
500.655	-0.190484	-1.95964	0
500.689	-0.191285	-1.95964	0
500.74	-0.188002	-1.95973	0
500.838	-0.189395	-1.95967	0
500.949	-0.193061	-1.9597	0
500.994	-0.189625	-1.95964	0
501.016	-0.18615	-1.95964	0
501.025	-0.185844	-1.95964	0
501.028	-0.18531	-1.95964	0
501.074	-0.184279	-1.95969	0
501.171	-0.183057	-1.95969	0
501.216	-0.182007	-1.95968	0
501.3	-0.1851	-1.95967	0
501.342	-0.186207	-1.9597	0
501.46	-0.189338	-1.95966	0
501.493	-0.185711	-1.95961	0
501.562	-0.186723	-1.95968	0
501.63	-0.187639	-1.95971	0
501.659	-0.184126	-1.95972	0
501.69	-0.183744	-1.95965	0
501.773	-0.182752	-1.95967	0
501.874	-0.186131	-1.95967	0
501.884	-0.182656	-1.95965	0
501.948	-0.181263	-1.95967	0
501.981	-0.184642	-1.95965	0
502.058	-0.181358	-1.95964	0
502.12	-0.180155	-1.95965	0
502.183	-0.176929	-1.95966	0
502.316	-0.179964	-1.9597	0
502.373	-0.176795	-1.9596	0
502.458	-0.179869	-1.95964	0
502.53	-0.176624	-1.95968	0
502.653	-0.179812	-1.95968	0
502.728	-0.178628	-1.95969	0
502.808	-0.175516	-1.95964	0
502.858	-0.1788	-1.95971	0
503.018	-0.17733	-1.9597	0
503.133	-0.178189	-1.95965	0
503.231	-0.181282	-1.95968	0
503.312	-0.180174	-1.95964	0
503.347	-0.179144	-1.9597	0
503.425	-0.180327	-1.95971	0
503.483	-0.181454	-1.95965	0
503.57	-0.182351	-1.95966	0
503.662	-0.183439	-1.95967	0
503.711	-0.180213	-1.95967	0
503.774	-0.181377	-1.95963	0
503.907	-0.182274	-1.95967	0
504.013	-0.183305	-1.95965	0
504.103	-0.180098	-1.95973	0
504.143	-0.181186	-1.95969	0
504.252	-0.17775	-1.95974	0
504.288	-0.174676	-1.95969	0
504.5	-0.173092	-1.95965	0
504.562	-0.171354	-1.95974	0
504.624	-0.172691	-1.95972	0
504.7	-0.173073	-1.95964	0
504.806	-0.174123	-1.95971	0
504.886	-0.172977	-1.95969	0
504.956	-0.169732	-1.95965	0
505.007	-0.168586	-1.95964	0
505.048	-0.167517	-1.95972	0
505.201	-0.168529	-1.95965	0
505.309	-0.169503	-1.95963	0
505.411	-0.170362	-1.95964	0
505.453	-0.169407	-1.95964	0
505.529	-0.16599	-1.95965	0
505.676	-0.166983	-1.95964	0
505.837	-0.167918	-1.95968	0
505.973	-0.164692	-1.95971	0
506.136	-0.168033	-1.95962	0
506.173	-0.168987	-1.95963	0
506.251	-0.169808	-1.95965	0
506.375	-0.170457	-1.95963	0
506.478	-0.169159	-1.9597	0
506.566	-0.17019	-1.95967	0
506.668	-0.171259	-1.95967	0
506.817	-0.16809	-1.95965	0
507.033	-0.166868	-1.95966	0
507.067	-0.163756	-1.95964	0
507.16	-0.164844	-1.95969	0
507.286	-0.166143	-1.95966	0
507.324	-0.164844	-1.9597	0
507.43	-0.161771	-1.95969	0
507.588	-0.164863	-1.95967	0
507.691	-0.165799	-1.95971	0
507.78	-0.16473	-1.95966	0
507.857	-0.16599	-1.95965	0
507.902	-0.164997	-1.95972	0
508.013	-0.16179	-1.95973	0
508.294	-0.162954	-1.95964	0
508.359	-0.164233	-1.95962	0
508.548	-0.163183	-1.95966	0
508.6	-0.160033	-1.95966	0
508.652	-0.161274	-1.95967	0
508.676	-0.160033	-1.95969	0
508.829	-0.161045	-1.95969	0
508.909	-0.162133	-1.95965	0
508.983	-0.161007	-1.95966	0
509.318	-0.160243	-1.95972	0
509.471	-0.159041	-1.95968	0
509.588	-0.155413	-1.95971	0
509.73	-0.153829	-1.95966	0
509.92	-0.154955	-1.95965	0
510.044	-0.158048	-1.95968	0
510.178	-0.157017	-1.95964	0
510.358	-0.157933	-1.95964	0
510.613	-0.156578	-1.95973	0
510.718	-0.157704	-1.95971	0
510.874	-0.156349	-1.95972	0
511.102	-0.157418	-1.95967	0
511.503	-0.158411	-1.95969	0
511.662	-0.15948	-1.95968	0
512.162	-0.158449	-1.95967	0
512.362	-0.157265	-1.95972	0
512.53	-0.158392	-1.95967	0
512.566	-0.159728	-1.95968	0
512.838	-0.160816	-1.95965	0
513.035	-0.159785	-1.95967	0
513.272	-0.160835	-1.95974	0
513.413	-0.161866	-1.95962	0
513.61	-0.15864	-1.95966	0
513.874	-0.159709	-1.95961	0
514.092	-0.158602	-1.95967	0
514.382	-0.157475	-1.95967	0
514.567	-0.155967	-1.95969	0
514.783	-0.154936	-1.95972	0
514.921	-0.156062	-1.95967	0
515.157	-0.157093	-1.95967	0
515.432	-0.153886	-1.95969	0
515.79	-0.15486	-1.95968	0
515.914	-0.155776	-1.95965	0
516.263	-0.156845	-1.95965	0
516.493	-0.155833	-1.95971	0
516.739	-0.154841	-1.95967	0
516.863	-0.155852	-1.95968	0
517.041	-0.154841	-1.95969	0
517.175	-0.155833	-1.95969	0
517.662	-0.156807	-1.95967	0
517.725	-0.15549	-1.95965	0
518.017	-0.158602	-1.95965	0
518.353	-0.161771	-1.95972	0
518.626	-0.16494	-1.95968	0
518.741	-0.163909	-1.95963	0
518.905	-0.162954	-1.95964	0
518.999	-0.161293	-1.95969	0
519.168	-0.158086	-1.95963	0
519.727	-0.159193	-1.95966	0
520.217	-0.162363	-1.95967	0
520.625	-0.165589	-1.95964	0
520.963	-0.166582	-1.95963	0
521.155	-0.163508	-1.95971	0
521.526	-0.164463	-1.95965	0
521.904	-0.165513	-1.9596	0
522.217	-0.164501	-1.95968	0
522.346	-0.165436	-1.9597	0
522.746	-0.162401	-1.95962	0
522.926	-0.163393	-1.95967	0
523.27	-0.164405	-1.95968	0
523.58	-0.165264	-1.9597	0
523.789	-0.166295	-1.95969	0
524.017	-0.165054	-1.95968	0
524.183	-0.163966	-1.95969	0
524.276	-0.164997	-1.95966	0
524.74	-0.168071	-1.9596	0
525.33	-0.171221	-1.95969	0
525.868	-0.170094	-1.95967	0
526.017	-0.168987	-1.95967	0
526.31	-0.172099	-1.95965	0
526.491	-0.171068	-1.95967	0
526.875	-0.171946	-1.95968	0
527.028	-0.173073	-1.95967	0
527.763	-0.172118	-1.95972	0
527.918	-0.168968	-1.95964	0
528.364	-0.170037	-1.95965	0
528.962	-0.173092	-1.95964	0
529.312	-0.171946	-1.95968	0
529.446	-0.172939	-1.95962	0
529.835	-0.174027	-1.95969	0
530.098	-0.175077	-1.95967	0
530.241	-0.174008	-1.95964	0
530.475	-0.177158	-1.95964	0
530.626	-0.176223	-1.95969	0
530.926	-0.175154	-1.95965	0
531.476	-0.176204	-1.95965	0
531.833	-0.177044	-1.95966	0
532.36	-0.177998	-1.95962	0
532.754	-0.174944	-1.95963	0
533.434	-0.175803	-1.95967	0
533.965	-0.178972	-1.95968	0
534.333	-0.177444	-1.95957	0
534.711	-0.178552	-1.95964	0
535.089	-0.179583	-1.95967	0
535.306	-0.180804	-1.95967	0
535.383	-0.179869	-1.95966	0
535.777	-0.1788	-1.95963	0
536.114	-0.177864	-1.95965	0
536.295	-0.180938	-1.95969	0
536.78	-0.179774	-1.95967	0
536.931	-0.178666	-1.95968	0
537.179	-0.179716	-1.95967	0
537.531	-0.182924	-1.95974	0
537.767	-0.179602	-1.95967	0
538.11	-0.178418	-1.95962	0
538.525	-0.175268	-1.95967	0
538.88	-0.178494	-1.95968	0
539.566	-0.181625	-1.95964	0
539.826	-0.182637	-1.95967	0
540.349	-0.183611	-1.95969	0
540.561	-0.18468	-1.95971	0
540.757	-0.187811	-1.95965	0
540.896	-0.188727	-1.95963	0
541.473	-0.187811	-1.95973	0
542.085	-0.18678	-1.95965	0
542.453	-0.185558	-1.95969	0
542.777	-0.186532	-1.9597	0
543.287	-0.187238	-1.95969	0
543.565	-0.186207	-1.95963	0
544.237	-0.189319	-1.9597	0
544.403	-0.190197	-1.95968	0
544.782	-0.191228	-1.95966	0
544.908	-0.189987	-1.95964	0
545.472	-0.188174	-1.95969	0
545.492	-0.184107	-1.95966	0
545.636	-0.182733	-1.95969	0
545.707	-0.181473	-1.95972	0
545.869	-0.184604	-1.95971	0
545.901	-0.180881	-1.95968	0
546.014	-0.181759	-1.9596	0
546.138	-0.185329	-1.95976	0
546.276	-0.186264	-1.95961	0
546.615	-0.187295	-1.95966	0
546.714	-0.183878	-1.95965	0
546.857	-0.18279	-1.95969	0
547.283	-0.184145	-1.95964	0
547.555	-0.185253	-1.95965	0
547.647	-0.184241	-1.95966	0
547.826	-0.182943	-1.95964	0
548.05	-0.179334	-1.95964	0
548.138	-0.183057	-1.95966	0
548.299	-0.181492	-1.95967	0
548.423	-0.178304	-1.95966	0
548.588	-0.177177	-1.95968	0
548.726	-0.178208	-1.95967	0
548.931	-0.179334	-1.95966	0
549.001	-0.1809	-1.9597	0
549.208	-0.181912	-1.95962	0
549.342	-0.183	-1.95964	0
549.419	-0.181969	-1.95968	0
549.441	-0.178647	-1.95967	0
549.49	-0.175535	-1.95968	0
549.552	-0.177483	-1.95964	0
549.577	-0.18027	-1.95969	0
549.685	-0.18132	-1.95964	0
549.731	-0.177597	-1.95962	0
549.835	-0.174371	-1.95971	0
550.086	-0.175631	-1.95967	0
550.134	-0.176834	-1.95965	0
550.266	-0.176948	-1.95965	0
550.291	-0.17376	-1.95969	0
550.349	-0.170724	-1.95971	0
550.443	-0.170037	-1.95965	0
550.447	-0.169006	-1.95971	0
550.45	-0.169999	-1.95962	0
550.453	-0.169063	-1.95968	0
550.456	-0.1704	-1.95964	0
550.459	-0.169331	-1.95976	0
550.463	-0.170476	-1.95966	0
550.467	-0.169159	-1.95972	0
550.469	-0.170304	-1.95961	0
550.473	-0.169159	-1.95968	0
550.476	-0.170247	-1.95962	0
550.499	-0.171373	-1.95966	0
550.5	-0.170228	-1.95968	0
550.501	-0.171202	-1.95963	0
550.502	-0.170075	-1.95969	0
550.518	-0.171068	-1.95967	0
550.519	-0.172328	-1.95967	0
550.52	-0.170992	-1.95971	0
550.521	-0.172653	-1.95967	0
550.523	-0.171469	-1.95962	0
550.524	-0.173473	-1.95972	0
550.526	-0.174924	-1.95965	0
550.527	-0.172882	-1.95972	0
550.596	-0.174294	-1.95966	0
550.658	-0.175344	-1.95967	0
550.715	-0.176452	-1.95971	0
550.732	-0.172958	-1.95965	0
550.777	-0.169617	-1.95971	0
550.875	-0.171412	-1.95957	0
550.885	-0.170075	-1.95967	0
551.044	-0.169178	-1.95965	0
551.157	-0.167918	-1.9597	0
551.17	-0.166887	-1.95962	0
551.172	-0.167574	-1.95958	0
551.173	-0.166983	-1.95971	0
551.18	-0.167956	-1.95967	0
551.181	-0.166792	-1.95972	0
551.189	-0.167842	-1.95958	0
551.19	-0.166448	-1.95972	0
551.191	-0.167842	-1.95969	0
551.192	-0.166792	-1.95967	0
551.193	-0.167937	-1.95975	0
551.197	-0.166811	-1.95969	0
551.198	-0.168281	-1.95967	0
551.199	-0.167173	-1.95972	0
551.2	-0.1683	-1.95965	0
551.201	-0.166868	-1.95965	0
551.202	-0.168281	-1.95965	0
551.205	-0.166983	-1.95965	0
551.205	-0.168243	-1.95966	0
551.206	-0.167021	-1.95969	0
551.21	-0.165837	-1.95959	0
551.213	-0.166887	-1.95957	0
551.225	-0.167937	-1.95967	0
551.245	-0.166983	-1.95968	0
551.268	-0.165742	-1.95969	0
551.279	-0.166696	-1.95975	0
551.288	-0.165627	-1.95964	0
551.307	-0.166429	-1.95966	0
551.309	-0.165207	-1.95972	0
551.314	-0.166582	-1.95968	0
551.314	-0.165112	-1.95964	0
551.323	-0.165303	-1.95967	0
551.34	-0.161141	-1.95972	0
551.465	-0.160129	-1.95963	0
551.493	-0.163222	-1.95967	0
551.511	-0.164291	-1.95964	0
551.521	-0.163336	-1.95959	0
551.554	-0.159747	-1.95968	0
551.611	-0.160702	-1.95968	0
551.637	-0.16221	-1.95969	0
551.72	-0.16347	-1.95969	0
551.732	-0.16221	-1.95967	0
551.812	-0.158793	-1.95965	0
551.852	-0.155318	-1.95967	0
551.941	-0.154134	-1.95973	0
552.001	-0.155032	-1.95966	0
552.016	-0.156444	-1.95959	0
552.06	-0.162343	-1.95964	0
552.068	-0.161332	-1.95974	0
552.073	-0.162611	-1.95964	0
552.078	-0.161484	-1.95969	0
552.122	-0.160568	-1.95968	0
552.137	-0.161599	-1.95962	0
552.139	-0.160511	-1.95967	0
552.14	-0.161733	-1.95973	0
552.141	-0.160511	-1.95969	0
552.147	-0.159308	-1.95965	0
552.149	-0.16053	-1.95967	0
552.159	-0.159461	-1.95966	0
552.311	-0.16053	-1.95968	0
552.433	-0.159308	-1.95974	0
552.511	-0.160816	-1.95965	0
552.56	-0.159766	-1.9596	0
552.657	-0.162878	-1.95967	0
552.772	-0.161847	-1.95966	0
552.971	-0.160892	-1.95964	0
553.121	-0.15969	-1.95972	0
553.162	-0.158831	-1.95965	0
553.277	-0.1578	-1.95965	0
553.393	-0.154287	-1.95967	0
553.453	-0.153371	-1.95969	0
553.554	-0.15675	-1.95969	0
553.64	-0.157762	-1.95964	0
553.736	-0.154516	-1.95965	0
553.896	-0.155566	-1.95969	0
553.942	-0.156463	-1.95961	0
554.25	-0.153313	-1.95969	0
554.375	-0.149877	-1.95961	0
554.423	-0.146765	-1.95964	0
554.446	-0.143424	-1.95966	0
554.496	-0.144398	-1.95967	0
554.517	-0.145601	-1.95964	0
554.535	-0.144684	-1.95965	0
554.716	-0.145562	-1.95967	0
554.791	-0.144493	-1.95965	0
554.806	-0.145658	-1.95969	0
554.849	-0.142584	-1.95964	0
554.966	-0.141649	-1.95967	0
555.176	-0.142794	-1.95972	0
555.235	-0.139663	-1.95965	0
555.372	-0.141191	-1.95969	0
555.554	-0.142393	-1.95965	0
555.637	-0.143424	-1.95969	0
555.754	-0.140198	-1.95961	0
555.806	-0.1368	-1.95966	0
556.063	-0.133421	-1.95965	0
556.272	-0.134929	-1.95968	0
556.352	-0.131569	-1.95965	0
556.532	-0.13071	-1.95971	0
556.646	-0.132027	-1.95964	0
556.88	-0.130843	-1.95962	0
556.979	-0.131741	-1.95962	0
557.118	-0.128285	-1.95962	0
557.276	-0.129278	-1.95966	0
557.427	-0.126147	-1.9596	0
557.593	-0.125097	-1.95972	0
557.667	-0.121718	-1.95972	0
557.966	-0.122691	-1.95967	0
558.045	-0.119331	-1.95963	0
558.272	-0.120439	-1.95968	0
558.353	-0.117269	-1.95972	0
558.585	-0.118377	-1.95963	0
558.773	-0.119732	-1.95966	0
558.968	-0.120706	-1.95967	0
559.035	-0.117518	-1.95964	0
559.212	-0.116372	-1.95964	0
559.275	-0.115208	-1.95969	0
559.686	-0.112039	-1.95971	0
560.471	-0.110989	-1.95967	0
560.759	-0.109977	-1.95972	0
561.061	-0.110931	-1.95966	0
561.208	-0.107399	-1.95969	0
561.486	-0.108411	-1.95969	0
562.154	-0.107304	-1.95967	0
562.335	-0.104116	-1.95965	0
563.123	-0.105261	-1.95963	0
563.469	-0.102188	-1.95964	0
564.163	-0.099133	-1.95964	0
565.378	-0.097873	-1.95972	0
565.799	-0.0989612	-1.95964	0
566.548	-0.10003	-1.95966	0
567.238	-0.103142	-1.95964	0
567.303	-0.100107	-1.95969	0
567.763	-0.100718	-1.95965	0
568.937	-0.101729	-1.95965	0
569.072	-0.10024	-1.95972	0
569.783	-0.101252	-1.95966	0
571.7	-0.102283	-1.95967	0
572.694	-0.103352	-1.95965	0
573.75	-0.100259	-1.95967	0
574.679	-0.0987321	-1.95969	0
575.472	-0.0992285	-1.95971	0