File: EXPERIMENTAL/DATA/Cycling data Master thesis/I-cell/2024-04-24_JP-measurements_sample-A6-01_M-cell_Cu-Li-Cellgard2400-separator_25muL-LiFSI-in-DME_outside-glovebox_sigma-0.02_added-OCV-0.1s_Deltax110.3mm_04_CP_C11.txt
time/s	Ewe/V	I/mA	error
81.9924	-0.0485788	-1.94506	0
81.9926	-0.0756768	-1.95944	0
81.9928	-0.0847454	-1.95954	0
81.993	-0.0899182	-1.95952	0
81.9932	-0.0942702	-1.9595	0
81.9934	-0.0984313	-1.9596	0
81.9936	-0.102268	-1.95964	0
81.9938	-0.106086	-1.95956	0
81.994	-0.10954	-1.95955	0
81.9942	-0.113033	-1.95966	0
81.9944	-0.116374	-1.95959	0
81.9946	-0.1196	-1.95957	0
81.9948	-0.122673	-1.95956	0
81.995	-0.125822	-1.95956	0
81.9952	-0.128876	-1.95956	0
81.9954	-0.131663	-1.95959	0
81.9956	-0.134526	-1.95955	0
81.9958	-0.137256	-1.95957	0
81.996	-0.1401	-1.95966	0
81.9962	-0.142753	-1.95952	0
81.9964	-0.14533	-1.95953	0
81.9966	-0.147907	-1.95951	0
81.9968	-0.150388	-1.95958	0
81.997	-0.153003	-1.95958	0
81.9972	-0.155504	-1.95955	0
81.9974	-0.157661	-1.95956	0
81.9976	-0.160085	-1.95956	0
81.9978	-0.162299	-1.95959	0
81.998	-0.164685	-1.95957	0
81.9982	-0.166747	-1.95962	0
81.9984	-0.168999	-1.95955	0
81.9986	-0.170908	-1.95962	0
81.9988	-0.173198	-1.9596	0
81.999	-0.17526	-1.95959	0
81.9992	-0.177207	-1.95961	0
81.9994	-0.179402	-1.95958	0
81.9996	-0.18112	-1.95963	0
81.9998	-0.183047	-1.95961	0
82	-0.184899	-1.95955	0
82.0002	-0.186789	-1.95961	0
82.0004	-0.188831	-1.95957	0
82.0006	-0.190434	-1.95958	0
82.0008	-0.192152	-1.95963	0
82.001	-0.193813	-1.95959	0
82.0012	-0.195665	-1.95963	0
82.0014	-0.197172	-1.95959	0
82.0016	-0.198967	-1.95962	0
82.0018	-0.200456	-1.95955	0
82.002	-0.202097	-1.95962	0
82.0022	-0.20372	-1.95955	0
82.0024	-0.205361	-1.95962	0
82.0026	-0.206735	-1.95961	0
82.0028	-0.208282	-1.95957	0
82.003	-0.209656	-1.95958	0
82.0032	-0.211164	-1.9596	0
82.0034	-0.212634	-1.95958	0
82.0036	-0.213912	-1.95959	0
82.0038	-0.21521	-1.95963	0
82.004	-0.216737	-1.95957	0
82.0042	-0.218035	-1.9596	0
82.0044	-0.219333	-1.95962	0
82.0046	-0.220708	-1.95958	0
82.0048	-0.221967	-1.95961	0
82.005	-0.223208	-1.95959	0
82.0052	-0.224468	-1.95962	0
82.0054	-0.225785	-1.95963	0
82.0056	-0.226797	-1.95957	0
82.0058	-0.228133	-1.95966	0
82.006	-0.229278	-1.95956	0
82.0062	-0.230462	-1.95959	0
82.0064	-0.231569	-1.95962	0
82.0066	-0.232618	-1.95957	0
82.0068	-0.233878	-1.95962	0
82.0072	-0.23594	-1.95959	0
82.0074	-0.236971	-1.95956	0
82.0076	-0.238154	-1.95962	0
82.008	-0.240215	-1.9596	0
82.0084	-0.242086	-1.9596	0
82.0086	-0.243174	-1.95961	0
82.0088	-0.244186	-1.95967	0
82.009	-0.245197	-1.95956	0
82.0094	-0.247049	-1.95963	0
82.0098	-0.248862	-1.95958	0
82.0102	-0.250695	-1.95962	0
82.0106	-0.252241	-1.95965	0
82.011	-0.254016	-1.95965	0
82.0114	-0.255734	-1.95964	0
82.0118	-0.257375	-1.95962	0
82.0122	-0.258902	-1.95964	0
82.0126	-0.260544	-1.9596	0
82.013	-0.261918	-1.95956	0
82.0134	-0.263464	-1.95966	0
82.0138	-0.264896	-1.95958	0
82.0142	-0.266327	-1.9596	0
82.0146	-0.267759	-1.95958	0
82.015	-0.269172	-1.95965	0
82.0154	-0.27047	-1.95959	0
82.0158	-0.271882	-1.95962	0
82.0162	-0.273161	-1.95961	0
82.0166	-0.274497	-1.95963	0
82.017	-0.275681	-1.95954	0
82.0174	-0.276864	-1.95963	0
82.0178	-0.278105	-1.95957	0
82.0182	-0.279403	-1.95966	0
82.0186	-0.280472	-1.95961	0
82.019	-0.281521	-1.9596	0
82.0194	-0.282724	-1.95957	0
82.0198	-0.283869	-1.95956	0
82.0204	-0.285473	-1.95963	0
82.021	-0.286961	-1.95959	0
82.0216	-0.288488	-1.95961	0
82.0222	-0.28992	-1.95955	0
82.0228	-0.291371	-1.9596	0
82.0232	-0.292401	-1.95962	0
82.0238	-0.29389	-1.95958	0
82.0244	-0.295188	-1.95953	0
82.025	-0.296505	-1.95964	0
82.0256	-0.297899	-1.95959	0
82.0262	-0.299025	-1.95967	0
82.0268	-0.300361	-1.95953	0
82.0274	-0.301487	-1.95963	0
82.028	-0.302709	-1.95964	0
82.0286	-0.303911	-1.95966	0
82.0292	-0.304923	-1.95962	0
82.0298	-0.30624	-1.95967	0
82.0304	-0.307366	-1.95956	0
82.0312	-0.308721	-1.95958	0
82.0318	-0.30981	-1.9596	0
82.0326	-0.311146	-1.9596	0
82.0332	-0.312176	-1.95958	0
82.0338	-0.313188	-1.95962	0
82.0346	-0.314562	-1.95963	0
82.0354	-0.315841	-1.95955	0
82.0362	-0.317063	-1.95959	0
82.037	-0.318323	-1.9596	0
82.0378	-0.319544	-1.95958	0
82.0386	-0.320651	-1.95961	0
82.0394	-0.321816	-1.95958	0
82.0402	-0.322827	-1.95958	0
82.041	-0.323915	-1.95956	0
82.0418	-0.324965	-1.9596	0
82.0426	-0.326072	-1.9596	0
82.0434	-0.327218	-1.95962	0
82.0444	-0.328363	-1.95958	0
82.0454	-0.329565	-1.95957	0
82.0462	-0.330672	-1.95964	0
82.0472	-0.331856	-1.95957	0
82.0482	-0.33302	-1.95958	0
82.0492	-0.334204	-1.95961	0
82.0502	-0.335273	-1.95963	0
82.0512	-0.336361	-1.95959	0
82.0524	-0.33764	-1.95956	0
82.0534	-0.338651	-1.95964	0
82.0544	-0.33972	-1.95956	0
82.0556	-0.340846	-1.95958	0
82.0566	-0.341858	-1.95965	0
82.0578	-0.343022	-1.95956	0
82.059	-0.344129	-1.95962	0
82.0602	-0.345313	-1.95965	0
82.0614	-0.34642	-1.95957	0
82.0626	-0.347432	-1.95962	0
82.064	-0.348653	-1.9596	0
82.0654	-0.349722	-1.95957	0
82.0668	-0.350925	-1.95965	0
82.0684	-0.352223	-1.95963	0
82.0696	-0.353234	-1.95955	0
82.0712	-0.35438	-1.95962	0
82.0728	-0.355429	-1.95958	0
82.0742	-0.35646	-1.95959	0
82.0758	-0.35751	-1.9596	0
82.0774	-0.358579	-1.9596	0
82.0792	-0.359705	-1.9596	0
82.081	-0.360736	-1.95959	0
82.0832	-0.361976	-1.9596	0
82.0856	-0.363026	-1.95958	0
82.0876	-0.364038	-1.95962	0
82.0902	-0.365145	-1.95962	0
82.0932	-0.366176	-1.9596	0
82.0958	-0.367187	-1.95963	0
82.0998	-0.368256	-1.95955	0
82.1048	-0.369344	-1.95958	0
82.1118	-0.370375	-1.95969	0
82.1238	-0.371387	-1.95962	0
82.1718	-0.370375	-1.9596	0
82.1848	-0.369306	-1.9596	0
82.1956	-0.368294	-1.95963	0
82.206	-0.367264	-1.95958	0
82.2196	-0.366252	-1.95963	0
82.2356	-0.365183	-1.95961	0
82.2642	-0.364133	-1.95958	0
82.5406	-0.365164	-1.95963	0
82.7026	-0.366176	-1.9596	0
83.9424	-0.365164	-1.9596	0
84.3228	-0.364152	-1.95963	0
84.7038	-0.363122	-1.95958	0
85.1518	-0.36211	-1.95963	0
85.8764	-0.361098	-1.95959	0
88.2712	-0.362167	-1.95963	0
88.9386	-0.363217	-1.95963	0
89.4546	-0.364229	-1.95964	0
89.9202	-0.36524	-1.95961	0
90.3786	-0.366271	-1.95965	0
90.77	-0.367283	-1.95963	0
91.1926	-0.368294	-1.95963	0
91.5738	-0.369306	-1.95965	0
91.9438	-0.370356	-1.95967	0
92.344	-0.371406	-1.95962	0
92.713	-0.372437	-1.95962	0
93.0854	-0.373467	-1.95961	0
93.463	-0.374479	-1.9596	0
93.852	-0.37551	-1.95963	0
94.2338	-0.37654	-1.95969	0
94.5978	-0.377552	-1.95959	0
94.9572	-0.378564	-1.95963	0
95.3532	-0.379594	-1.95965	0
95.759	-0.380606	-1.9597	0
96.1542	-0.381618	-1.95962	0
96.5484	-0.382629	-1.95967	0
96.9906	-0.383641	-1.95967	0
97.4458	-0.384691	-1.95963	0
97.919	-0.385722	-1.95963	0
98.407	-0.386733	-1.95965	0
98.863	-0.387745	-1.95962	0
99.3678	-0.388795	-1.95963	0
99.9084	-0.389806	-1.95965	0
100.515	-0.390818	-1.95962	0
101.092	-0.391868	-1.95966	0
101.726	-0.39288	-1.9597	0
102.469	-0.393948	-1.95964	0
103.29	-0.39496	-1.95967	0
104.223	-0.396029	-1.95963	0
105.366	-0.39706	-1.95963	0
106.492	-0.398091	-1.95963	0
108.012	-0.399102	-1.95963	0
110.243	-0.400114	-1.95959	0
115.243	-0.400667	-1.95961	0
119.875	-0.399656	-1.95964	0
121.776	-0.398644	-1.95966	0
123.408	-0.397632	-1.95962	0
124.862	-0.396621	-1.9596	0
126.078	-0.395609	-1.9596	0
127.876	-0.394597	-1.95965	0
129.149	-0.393548	-1.95963	0
130.378	-0.392536	-1.95966	0
131.549	-0.391505	-1.95961	0
132.619	-0.390455	-1.95965	0
133.729	-0.389444	-1.95964	0
134.68	-0.388432	-1.95958	0
135.632	-0.387382	-1.95965	0
136.702	-0.386371	-1.95961	0
137.847	-0.385359	-1.95965	0
138.855	-0.384328	-1.95963	0
139.862	-0.383298	-1.95963	0
140.855	-0.382286	-1.95964	0
141.852	-0.381255	-1.95965	0
142.783	-0.380243	-1.95961	0
143.859	-0.379232	-1.95965	0
144.878	-0.378201	-1.95969	0
145.978	-0.37717	-1.95965	0
147.002	-0.376159	-1.95958	0
147.817	-0.375128	-1.95962	0
148.84	-0.374097	-1.9596	0
150.002	-0.373066	-1.95962	0
150.997	-0.372055	-1.95958	0
152.095	-0.370986	-1.95969	0
153.151	-0.369936	-1.95965	0
154.256	-0.368924	-1.95967	0
155.376	-0.367913	-1.9596	0
156.381	-0.366901	-1.95964	0
157.522	-0.365851	-1.95965	0
159.046	-0.36484	-1.95965	0
160.278	-0.363828	-1.95964	0
161.252	-0.362816	-1.95963	0
162.308	-0.361766	-1.95963	0
163.585	-0.360736	-1.95966	0
164.496	-0.359705	-1.95963	0
165.497	-0.358693	-1.95973	0
166.644	-0.357663	-1.95965	0
167.89	-0.356651	-1.95965	0
168.937	-0.355639	-1.95964	0
170.046	-0.354628	-1.95962	0
171.268	-0.353616	-1.95964	0
172.147	-0.352585	-1.95967	0
173.111	-0.351574	-1.95965	0
174.12	-0.350543	-1.95967	0
175.209	-0.349531	-1.9596	0
176.384	-0.34852	-1.95958	0
177.341	-0.347508	-1.95965	0
178.348	-0.346496	-1.95969	0
179.573	-0.345485	-1.95958	0
180.694	-0.344473	-1.95966	0
181.926	-0.343461	-1.95963	0
183.058	-0.34245	-1.95963	0
184.122	-0.341381	-1.95967	0
185.395	-0.340369	-1.95965	0
186.499	-0.339357	-1.95963	0
187.475	-0.338346	-1.9596	0
188.392	-0.337315	-1.95958	0
189.341	-0.336303	-1.95964	0
190.516	-0.335234	-1.95965	0
191.694	-0.334223	-1.95961	0
193.049	-0.333211	-1.95965	0
193.914	-0.332199	-1.95968	0
194.727	-0.33115	-1.95958	0
195.712	-0.330119	-1.9596	0
196.588	-0.329107	-1.95958	0
197.465	-0.328096	-1.95965	0
198.189	-0.327084	-1.95956	0
198.986	-0.326072	-1.95966	0
199.788	-0.325061	-1.95964	0
200.793	-0.324049	-1.95965	0
201.817	-0.323037	-1.95967	0
202.451	-0.321949	-1.95969	0
202.451	-0.319468	-1.95964	0
202.452	-0.318075	-1.95963	0
202.46	-0.317044	-1.95963	0
202.471	-0.315536	-1.95961	0
202.476	-0.314371	-1.95961	0
202.487	-0.313264	-1.9597	0
202.487	-0.311127	-1.95967	0
202.493	-0.308817	-1.95962	0
202.493	-0.305782	-1.95963	0
202.498	-0.304732	-1.95962	0
202.517	-0.301812	-1.95956	0
202.526	-0.299903	-1.95966	0
202.527	-0.298758	-1.9597	0
202.536	-0.299827	-1.95964	0
202.544	-0.300857	-1.95967	0
202.548	-0.301964	-1.95969	0
202.554	-0.300476	-1.95963	0
202.556	-0.299407	-1.95965	0
202.565	-0.298376	-1.95956	0
202.586	-0.295799	-1.95966	0
202.586	-0.294768	-1.9596	0
202.587	-0.293356	-1.9596	0
202.587	-0.291638	-1.95962	0
202.59	-0.290474	-1.9597	0
202.603	-0.291504	-1.95965	0
202.605	-0.292535	-1.95965	0
202.606	-0.289825	-1.95961	0
202.608	-0.28866	-1.95964	0
202.61	-0.287649	-1.95963	0
202.623	-0.288737	-1.95967	0
202.633	-0.289996	-1.95962	0
202.633	-0.291237	-1.95962	0
202.634	-0.288832	-1.95963	0
202.642	-0.286847	-1.95966	0
202.645	-0.284938	-1.95965	0
202.646	-0.283869	-1.95965	0
202.663	-0.284995	-1.95964	0
202.672	-0.286045	-1.95962	0
202.679	-0.287248	-1.95965	0
202.681	-0.288317	-1.95967	0
202.683	-0.286179	-1.95965	0
202.685	-0.287229	-1.9596	0
202.687	-0.28824	-1.95965	0
202.692	-0.286904	-1.95969	0
202.698	-0.287992	-1.95966	0
202.7	-0.289004	-1.95964	0
202.702	-0.290015	-1.95966	0
202.704	-0.291027	-1.95965	0
202.705	-0.289825	-1.95967	0
202.706	-0.288622	-1.95965	0
202.71	-0.287477	-1.95959	0
202.713	-0.288565	-1.95962	0
202.713	-0.285453	-1.95966	0
202.717	-0.283373	-1.95963	0
202.718	-0.282342	-1.95963	0
202.723	-0.283354	-1.95958	0
202.727	-0.284365	-1.95962	0
202.727	-0.282533	-1.95969	0
202.728	-0.280968	-1.95963	0
202.73	-0.279937	-1.95957	0
202.731	-0.27841	-1.95959	0
202.733	-0.277208	-1.95962	0
202.743	-0.275337	-1.95969	0
202.744	-0.274249	-1.95964	0
202.746	-0.275585	-1.9596	0
202.746	-0.274153	-1.95969	0
202.753	-0.275165	-1.95965	0
202.758	-0.276196	-1.95962	0
202.759	-0.27736	-1.95962	0
202.761	-0.278525	-1.95961	0
202.761	-0.279574	-1.95965	0
202.765	-0.280701	-1.95962	0
202.77	-0.281865	-1.95963	0
202.774	-0.282934	-1.9597	0
202.774	-0.281121	-1.95965	0
202.775	-0.28009	-1.95956	0
202.777	-0.277685	-1.9597	0
202.781	-0.276482	-1.95969	0
202.785	-0.275356	-1.95956	0
202.794	-0.27423	-1.95963	0
202.799	-0.272779	-1.95965	0
202.799	-0.274192	-1.95966	0
202.818	-0.275299	-1.95963	0
202.829	-0.27631	-1.95964	0
202.833	-0.27736	-1.95966	0
202.837	-0.278448	-1.95965	0
202.839	-0.279574	-1.9596	0
202.842	-0.27799	-1.9597	0
202.853	-0.275242	-1.95965	0
202.854	-0.274115	-1.95965	0
202.863	-0.273008	-1.95967	0
202.863	-0.271844	-1.95966	0
202.876	-0.272913	-1.95969	0
202.879	-0.273982	-1.95963	0
202.883	-0.275051	-1.95962	0
202.888	-0.27612	-1.95962	0
202.891	-0.27715	-1.95961	0
202.893	-0.278391	-1.95965	0
202.893	-0.279574	-1.95959	0
202.895	-0.278162	-1.95963	0
202.896	-0.276425	-1.95963	0
202.898	-0.275394	-1.95965	0
202.902	-0.273924	-1.95965	0
202.911	-0.272913	-1.95963	0
202.918	-0.271882	-1.95963	0
202.935	-0.269763	-1.95963	0
202.955	-0.267454	-1.95963	0
202.96	-0.266423	-1.95965	0
202.962	-0.265411	-1.95964	0
202.977	-0.266537	-1.95964	0
202.982	-0.264209	-1.95962	0
202.983	-0.260697	-1.95973	0
202.984	-0.259666	-1.95965	0
202.984	-0.258635	-1.95968	0
202.986	-0.257585	-1.95965	0
202.992	-0.256516	-1.95966	0
202.995	-0.253539	-1.95966	0
203.016	-0.252489	-1.95966	0
203.021	-0.250847	-1.95964	0
203.028	-0.249702	-1.95965	0
203.03	-0.247106	-1.95965	0
203.044	-0.24848	-1.95962	0
203.047	-0.249511	-1.95968	0
203.047	-0.248194	-1.95965	0
203.055	-0.247182	-1.9597	0
203.059	-0.245617	-1.95965	0
203.068	-0.246648	-1.95962	0
203.069	-0.247736	-1.95969	0
203.073	-0.248805	-1.95969	0
203.079	-0.249912	-1.95967	0
203.081	-0.25121	-1.95966	0
203.087	-0.249549	-1.95967	0
203.095	-0.250714	-1.95971	0
203.096	-0.249473	-1.95963	0
203.099	-0.248461	-1.95963	0
203.104	-0.24745	-1.9597	0
203.105	-0.246362	-1.95963	0
203.107	-0.245121	-1.95962	0
203.109	-0.246133	-1.95967	0
203.112	-0.244415	-1.9596	0
203.114	-0.243308	-1.95962	0
203.115	-0.242105	-1.95963	0
203.117	-0.24075	-1.95956	0
203.124	-0.241857	-1.95964	0
203.129	-0.242945	-1.95962	0
203.134	-0.243995	-1.95965	0
203.136	-0.245083	-1.95965	0
203.141	-0.246133	-1.9596	0
203.144	-0.247144	-1.9596	0
203.146	-0.248232	-1.95963	0
203.153	-0.24703	-1.95966	0
203.153	-0.245999	-1.95963	0
203.161	-0.244873	-1.95957	0
203.171	-0.24325	-1.95972	0
203.175	-0.242029	-1.95967	0
203.185	-0.24304	-1.95963	0
203.19	-0.244128	-1.95964	0
203.191	-0.242735	-1.95963	0
203.201	-0.241609	-1.95966	0
203.209	-0.24262	-1.95967	0
203.212	-0.243689	-1.95967	0
203.214	-0.244816	-1.95968	0
203.218	-0.243766	-1.95961	0
203.22	-0.242315	-1.95966	0
203.23	-0.243365	-1.95967	0
203.233	-0.242315	-1.95966	0
203.237	-0.243556	-1.95965	0
203.239	-0.24222	-1.95969	0
203.24	-0.243785	-1.95969	0
203.254	-0.244835	-1.95959	0
203.256	-0.245865	-1.95969	0
203.26	-0.246992	-1.95963	0
203.266	-0.248022	-1.9597	0
203.268	-0.249072	-1.95966	0
203.271	-0.247984	-1.9597	0
203.272	-0.246763	-1.95966	0
203.274	-0.245617	-1.95961	0
203.275	-0.244472	-1.95963	0
203.276	-0.243422	-1.95967	0
203.282	-0.244453	-1.95962	0
203.283	-0.243403	-1.95971	0
203.285	-0.242391	-1.95965	0
203.29	-0.24138	-1.95965	0
203.295	-0.2397	-1.95962	0
203.296	-0.238459	-1.95965	0
203.301	-0.237371	-1.95967	0
203.302	-0.236264	-1.95956	0
203.314	-0.237352	-1.95963	0
203.318	-0.23594	-1.95964	0
203.327	-0.236971	-1.95957	0
203.329	-0.235959	-1.9596	0
203.329	-0.23342	-1.95964	0
203.335	-0.232237	-1.95959	0
203.336	-0.23029	-1.95963	0
203.336	-0.229164	-1.95969	0
203.351	-0.230213	-1.95963	0
203.352	-0.229183	-1.95965	0
203.353	-0.228171	-1.95963	0
203.358	-0.227102	-1.95965	0
203.364	-0.228152	-1.95965	0
203.365	-0.227064	-1.95959	0
203.385	-0.2259	-1.95964	0
203.385	-0.224602	-1.95976	0
203.387	-0.22338	-1.9596	0
203.405	-0.224602	-1.95964	0
203.415	-0.223418	-1.95967	0
203.423	-0.224697	-1.95964	0
203.427	-0.225747	-1.95965	0
203.433	-0.224277	-1.95969	0
203.436	-0.222407	-1.95966	0
203.441	-0.220631	-1.95962	0
203.444	-0.219582	-1.95973	0
203.445	-0.218551	-1.95962	0
203.453	-0.21752	-1.95965	0
203.47	-0.216508	-1.95965	0
203.478	-0.215306	-1.95967	0
203.497	-0.216337	-1.95966	0
203.501	-0.217425	-1.95967	0
203.518	-0.218436	-1.95965	0
203.522	-0.219524	-1.95965	0
203.527	-0.22067	-1.95964	0
203.529	-0.221758	-1.95969	0
203.529	-0.22044	-1.95961	0
203.53	-0.219257	-1.95962	0
203.538	-0.220326	-1.95962	0
203.54	-0.221433	-1.9596	0
203.542	-0.222483	-1.95964	0
203.547	-0.221185	-1.9597	0
203.55	-0.219047	-1.95963	0
203.562	-0.217329	-1.95963	0
203.569	-0.216184	-1.95961	0
203.569	-0.215115	-1.95963	0
203.572	-0.213951	-1.95958	0
203.578	-0.212347	-1.95965	0
203.585	-0.213435	-1.95964	0
203.588	-0.214447	-1.95961	0
203.591	-0.213321	-1.95962	0
203.61	-0.21229	-1.95969	0
203.613	-0.211049	-1.9596	0
203.627	-0.212156	-1.95963	0
203.628	-0.21103	-1.95968	0
203.634	-0.212576	-1.95963	0
203.654	-0.213626	-1.95959	0
203.658	-0.214695	-1.95967	0
203.668	-0.215726	-1.9597	0
203.671	-0.216757	-1.95964	0
203.675	-0.217768	-1.95963	0
203.679	-0.21878	-1.95969	0
203.689	-0.21983	-1.95961	0
203.692	-0.21878	-1.95959	0
203.698	-0.217692	-1.9596	0
203.71	-0.216451	-1.95965	0
203.721	-0.215382	-1.95969	0
203.722	-0.213893	-1.95967	0
203.728	-0.212882	-1.95963	0
203.731	-0.211851	-1.95963	0
203.733	-0.210801	-1.95963	0
203.74	-0.20977	-1.95966	0
203.752	-0.207499	-1.95967	0
203.754	-0.206449	-1.9596	0
203.789	-0.205399	-1.95963	0
203.8	-0.206411	-1.95959	0
203.803	-0.207442	-1.95965	0
203.808	-0.208511	-1.95969	0
203.809	-0.209828	-1.95963	0
203.821	-0.210858	-1.95963	0
203.823	-0.211985	-1.95967	0
203.828	-0.213187	-1.95967	0
203.832	-0.212042	-1.95963	0
203.844	-0.210209	-1.95964	0
203.857	-0.20895	-1.95963	0
203.887	-0.209961	-1.95967	0
203.888	-0.208931	-1.95964	0
203.892	-0.207804	-1.95968	0
203.902	-0.206048	-1.95958	0
203.914	-0.204693	-1.95961	0
203.916	-0.203491	-1.9596	0
203.917	-0.202479	-1.95962	0
203.918	-0.201429	-1.95962	0
203.937	-0.200341	-1.95962	0
203.947	-0.198776	-1.95968	0
203.955	-0.197688	-1.95965	0
203.966	-0.198719	-1.95963	0
203.97	-0.199826	-1.95969	0
203.981	-0.200875	-1.95965	0
203.985	-0.202059	-1.95964	0
203.991	-0.201028	-1.95963	0
204.013	-0.199558	-1.95965	0
204.015	-0.198184	-1.95968	0
204.021	-0.196829	-1.9597	0
204.025	-0.195741	-1.95961	0
204.028	-0.194118	-1.95966	0
204.032	-0.193088	-1.95967	0
204.041	-0.194214	-1.95964	0
204.045	-0.195225	-1.95963	0
204.053	-0.194157	-1.95963	0
204.054	-0.192992	-1.95962	0
204.056	-0.191904	-1.95962	0
204.067	-0.190893	-1.95962	0
204.088	-0.192191	-1.95965	0
204.102	-0.191179	-1.95965	0
204.104	-0.19011	-1.95967	0
204.115	-0.191236	-1.95963	0
204.13	-0.190091	-1.95964	0
204.143	-0.191446	-1.95961	0
204.162	-0.190396	-1.9597	0
204.167	-0.189346	-1.95965	0
204.185	-0.190454	-1.95962	0
204.208	-0.191465	-1.95962	0
204.24	-0.189709	-1.95964	0
204.243	-0.188564	-1.95963	0
204.287	-0.18969	-1.95965	0
204.326	-0.188468	-1.95963	0
204.336	-0.18948	-1.95965	0
204.337	-0.19053	-1.9596	0
204.369	-0.189461	-1.95963	0
204.378	-0.188449	-1.95968	0
204.38	-0.18698	-1.95961	0
204.39	-0.18593	-1.95961	0
204.396	-0.184899	-1.95964	0
204.424	-0.186044	-1.95969	0
204.473	-0.187075	-1.95969	0
204.48	-0.188125	-1.95962	0
204.484	-0.189136	-1.95963	0
204.492	-0.190282	-1.95965	0
204.501	-0.191313	-1.95964	0
204.504	-0.190186	-1.95969	0
204.522	-0.188793	-1.95963	0
204.53	-0.187781	-1.95962	0
204.57	-0.186369	-1.95962	0
204.594	-0.187419	-1.95961	0
204.61	-0.186331	-1.95969	0
204.611	-0.185262	-1.9597	0
204.613	-0.184231	-1.9596	0
204.623	-0.1832	-1.95963	0
204.631	-0.182017	-1.95967	0
204.632	-0.18091	-1.95965	0
204.646	-0.179898	-1.95962	0
204.65	-0.178619	-1.95967	0
204.652	-0.17755	-1.95969	0
204.667	-0.176329	-1.95969	0
204.706	-0.177417	-1.9596	0
204.737	-0.176386	-1.9596	0
204.738	-0.175279	-1.95965	0
204.744	-0.174153	-1.95963	0
204.79	-0.175164	-1.95962	0
204.823	-0.176596	-1.95962	0
204.841	-0.175584	-1.95971	0
204.846	-0.174401	-1.95965	0
204.862	-0.175489	-1.95965	0
204.874	-0.174439	-1.95965	0
204.881	-0.173408	-1.95962	0
204.897	-0.174496	-1.95967	0
204.897	-0.173446	-1.95968	0
204.936	-0.172435	-1.95966	0
204.951	-0.173465	-1.95967	0
204.972	-0.172301	-1.95964	0
204.981	-0.171289	-1.95966	0
205.037	-0.170278	-1.95959	0
205.06	-0.16877	-1.95963	0
205.067	-0.167682	-1.9596	0
205.115	-0.166403	-1.95967	0
205.123	-0.165391	-1.95966	0
205.174	-0.166498	-1.95962	0
205.189	-0.167567	-1.95965	0
205.21	-0.168751	-1.95961	0
205.251	-0.167739	-1.95964	0
205.255	-0.166727	-1.95965	0
205.266	-0.165658	-1.95969	0
205.286	-0.166899	-1.95967	0
205.335	-0.167911	-1.95962	0
205.388	-0.166785	-1.95965	0
205.407	-0.165754	-1.95967	0
205.438	-0.166785	-1.95967	0
205.476	-0.167796	-1.95967	0
205.491	-0.168808	-1.95962	0
205.502	-0.167625	-1.95969	0
205.51	-0.166613	-1.9596	0
205.518	-0.165353	-1.9596	0
205.608	-0.164341	-1.95963	0
205.658	-0.165372	-1.9596	0
205.663	-0.166422	-1.95966	0
205.671	-0.165353	-1.95963	0
205.675	-0.164322	-1.95966	0
205.687	-0.163292	-1.95966	0
205.703	-0.162223	-1.95963	0
205.715	-0.160906	-1.95968	0
205.73	-0.159894	-1.95963	0
205.742	-0.161001	-1.95962	0
205.744	-0.162032	-1.9596	0
205.748	-0.161001	-1.95956	0
205.781	-0.159875	-1.95966	0
205.793	-0.158844	-1.95965	0
205.825	-0.159951	-1.95962	0
205.854	-0.158844	-1.95964	0
205.907	-0.160009	-1.9596	0
205.915	-0.16102	-1.95969	0
205.942	-0.15997	-1.9596	0
205.986	-0.158844	-1.9597	0
206.028	-0.157813	-1.95961	0
206.052	-0.156745	-1.95963	0
206.089	-0.157756	-1.95966	0
206.096	-0.156687	-1.95967	0
206.107	-0.155657	-1.95966	0
206.118	-0.154607	-1.95961	0
206.121	-0.153538	-1.95958	0
206.174	-0.152469	-1.95965	0
206.207	-0.151419	-1.95961	0
206.255	-0.15014	-1.95962	0
206.314	-0.151152	-1.95966	0
206.328	-0.152183	-1.95966	0
206.341	-0.153194	-1.95965	0
206.355	-0.154206	-1.95966	0
206.4	-0.153156	-1.95968	0
206.411	-0.152068	-1.95965	0
206.436	-0.150808	-1.95962	0
206.456	-0.149777	-1.95956	0
206.483	-0.148499	-1.95963	0
206.489	-0.147353	-1.95968	0
206.56	-0.148441	-1.95961	0
206.646	-0.147353	-1.95964	0
206.653	-0.146342	-1.95964	0
206.698	-0.147411	-1.95962	0
206.726	-0.148518	-1.95966	0
206.763	-0.147468	-1.95968	0
206.775	-0.146284	-1.95966	0
206.799	-0.145215	-1.9596	0
206.81	-0.143994	-1.95968	0
206.841	-0.142925	-1.95965	0
206.913	-0.141818	-1.95961	0
206.922	-0.140806	-1.95968	0
206.951	-0.139795	-1.95967	0
207.038	-0.138707	-1.95962	0
207.113	-0.137542	-1.95965	0
207.13	-0.136511	-1.95963	0
207.219	-0.135481	-1.9596	0
207.265	-0.13445	-1.95967	0
207.331	-0.135462	-1.95961	0
207.395	-0.13445	-1.9596	0
207.403	-0.135481	-1.95963	0
207.496	-0.136531	-1.95956	0
207.537	-0.137561	-1.95963	0
207.566	-0.13592	-1.95964	0
207.64	-0.134679	-1.95967	0
207.652	-0.133667	-1.95966	0
207.691	-0.132637	-1.95966	0
207.737	-0.131606	-1.95969	0
207.861	-0.130594	-1.95967	0
207.883	-0.129583	-1.95965	0
207.926	-0.130613	-1.95962	0
208.014	-0.129525	-1.95966	0
208.057	-0.130613	-1.95963	0
208.191	-0.129583	-1.95963	0
208.24	-0.130842	-1.95967	0
208.279	-0.131854	-1.95967	0
208.313	-0.130842	-1.95966	0
208.342	-0.13193	-1.95962	0
208.397	-0.13298	-1.95965	0
208.412	-0.131969	-1.95962	0
208.457	-0.130957	-1.95958	0
208.492	-0.131969	-1.95969	0
208.511	-0.130957	-1.95968	0
208.561	-0.129907	-1.95964	0
208.625	-0.1288	-1.95969	0
208.633	-0.127693	-1.95966	0
208.636	-0.126051	-1.95962	0
208.644	-0.125021	-1.95964	0
208.661	-0.123952	-1.95965	0
208.917	-0.12273	-1.95963	0
208.982	-0.121718	-1.95967	0
209.297	-0.122768	-1.95968	0
209.335	-0.123799	-1.9596	0
209.368	-0.122406	-1.95968	0
209.4	-0.121394	-1.95965	0
209.444	-0.122558	-1.9597	0
209.512	-0.121547	-1.95967	0
209.628	-0.120535	-1.95964	0
209.657	-0.119523	-1.95962	0
209.803	-0.118512	-1.95965	0
209.934	-0.1175	-1.9596	0
209.953	-0.116469	-1.95964	0
210.038	-0.1154	-1.95963	0
210.119	-0.114312	-1.95961	0
210.582	-0.115343	-1.95964	0
210.648	-0.116374	-1.95967	0
210.734	-0.115362	-1.95967	0
210.794	-0.114331	-1.95963	0
211.063	-0.11332	-1.95963	0
211.793	-0.112251	-1.95968	0
212.086	-0.113377	-1.95962	0
212.28	-0.112346	-1.9597	0
212.426	-0.111316	-1.95966	0
212.813	-0.110247	-1.95963	0
213.154	-0.10914	-1.95963	0
213.284	-0.108109	-1.95967	0
213.589	-0.109197	-1.95969	0
213.757	-0.110228	-1.95965	0
214.938	-0.109216	-1.95965	0
215.167	-0.110228	-1.95967	0
215.795	-0.111316	-1.95959	0
216.051	-0.112404	-1.9596	0
216.41	-0.113415	-1.95963	0
216.538	-0.112404	-1.95962	0
216.7	-0.113415	-1.95967	0
217.228	-0.114446	-1.95965	0
217.459	-0.115515	-1.95965	0
217.871	-0.116527	-1.9596	0
218.997	-0.115515	-1.95959	0
219.183	-0.116527	-1.95959	0
219.507	-0.117557	-1.95968	0
219.799	-0.118607	-1.95963	0
219.889	-0.119733	-1.95958	0
219.93	-0.118626	-1.95962	0
220.211	-0.119657	-1.95961	0
220.722	-0.120688	-1.95958	0
221.086	-0.121699	-1.95962	0
221.287	-0.122749	-1.95961	0
221.349	-0.12378	-1.95963	0
221.598	-0.122768	-1.95965	0
221.63	-0.121718	-1.95962	0
221.833	-0.120707	-1.95963	0
221.891	-0.121718	-1.95961	0
222.332	-0.120707	-1.95962	0
222.747	-0.121738	-1.95956	0
222.797	-0.120573	-1.95966	0
222.819	-0.119542	-1.95967	0
222.983	-0.120573	-1.95965	0
223.24	-0.121604	-1.95965	0
223.713	-0.122616	-1.95967	0
223.82	-0.123627	-1.9596	0
224.046	-0.12252	-1.95963	0
224.058	-0.121508	-1.95964	0
224.092	-0.12042	-1.95963	0
224.808	-0.12147	-1.95962	0
225.434	-0.12252	-1.9596	0
225.608	-0.12147	-1.95958	0
225.672	-0.12252	-1.95967	0
225.802	-0.12147	-1.95961	0
226.062	-0.120459	-1.95962	0
226.117	-0.119428	-1.95968	0
226.628	-0.12044	-1.95962	0
227.078	-0.119409	-1.95963	0
227.225	-0.120459	-1.9597	0
227.384	-0.12147	-1.95965	0
227.53	-0.12042	-1.95961	0
227.6	-0.121432	-1.95965	0
227.715	-0.12042	-1.9597	0
227.756	-0.119275	-1.9597	0
227.875	-0.120344	-1.95965	0
228.079	-0.121356	-1.95965	0
228.109	-0.120287	-1.95963	0
228.738	-0.121394	-1.95957	0
229.555	-0.120325	-1.95961	0
230.318	-0.119313	-1.95963	0
230.623	-0.120325	-1.95965	0
231.699	-0.119313	-1.95966	0
231.978	-0.118244	-1.95968	0
232.303	-0.117176	-1.95967	0
232.341	-0.116164	-1.95972	0
232.811	-0.115095	-1.95965	0
233.945	-0.114083	-1.95965	0
233.986	-0.113033	-1.95959	0
234.377	-0.114045	-1.95964	0
234.78	-0.112957	-1.95965	0
235.052	-0.111907	-1.95962	0
235.713	-0.110877	-1.9596	0
236.038	-0.111888	-1.95962	0
236.167	-0.110877	-1.95962	0
236.676	-0.109865	-1.95962	0
236.772	-0.108853	-1.95966	0
237.02	-0.107842	-1.95967	0
237.243	-0.108891	-1.95958	0
237.394	-0.109941	-1.9597	0
237.589	-0.108891	-1.95962	0
238.834	-0.10788	-1.95967	0
239.634	-0.108891	-1.9596	0
240.66	-0.109941	-1.95963	0
240.884	-0.10893	-1.95965	0
240.974	-0.107899	-1.95964	0
241.692	-0.106887	-1.9596	0
242.206	-0.107899	-1.9596	0
242.511	-0.106868	-1.95966	0
243.578	-0.10788	-1.95968	0
243.732	-0.109178	-1.95956	0
243.763	-0.110208	-1.9597	0
244.182	-0.11122	-1.95964	0
244.659	-0.11227	-1.95962	0
246.025	-0.111239	-1.95965	0
246.182	-0.110208	-1.95965	0
246.301	-0.109044	-1.95962	0
246.439	-0.107956	-1.95963	0
247.19	-0.106944	-1.95962	0
248.168	-0.107975	-1.95963	0
249.375	-0.108987	-1.9596	0
249.741	-0.10788	-1.95967	0
250.853	-0.10893	-1.95962	0
251.091	-0.107918	-1.95956	0
251.455	-0.106906	-1.95969	0
252.094	-0.107918	-1.95965	0
253.173	-0.106887	-1.95971	0
253.802	-0.105876	-1.95967	0
254.099	-0.104807	-1.95964	0
255.265	-0.105876	-1.95962	0
255.5	-0.104864	-1.95962	0
257.464	-0.105971	-1.95963	0
259.755	-0.107021	-1.95967	0
260.01	-0.105971	-1.95964	0
261.605	-0.107002	-1.95966	0
261.662	-0.10599	-1.95965	0
261.809	-0.104959	-1.95965	0
261.992	-0.10536	-1.95963	0