File: EXPERIMENTAL/DATA/Cycling data Master thesis/I-cell/2024-04-24_JP-measurements_sample-A5-01_M-cell_Cu-Li-Cellgard2400-separator_25muL-LiFSI-in-DME_outside-glovebox_sigma-0.02_added-OCV-0.1s_Deltax110.3mm_02_MB_C10.txt
time/s	Ewe/V	I/mA	error
60.053	3.03398	-0.0250307	0
60.1732	0.00924106	-13.7565	0
60.1738	0.00920289	-13.6838	0
60.1744	0.00933648	-13.62	0
60.175	0.00916473	-13.5524	0
60.1756	0.00920289	-13.4765	0
60.1762	0.00937465	-13.4159	0
60.1768	0.00918381	-13.3496	0
60.1774	0.0093174	-13.2858	0
60.178	0.00924106	-13.2176	0
60.1786	0.00916473	-13.157	0
60.1792	0.00922198	-13.0894	0
60.1798	0.00933648	-13.0333	0
60.1804	0.00922198	-12.974	0
60.1808	0.00916473	-12.9236	0
60.1814	0.00933648	-12.8604	0
60.182	0.00926014	-12.8037	0
60.1826	0.00927923	-12.7456	0
60.1832	0.00918381	-12.6825	0
60.1838	0.00939373	-12.6238	0
60.1844	0.0093174	-12.569	0
60.1848	0.00920289	-12.5186	0
60.1856	0.00927923	-12.4408	0
60.1864	0.00927923	-12.3643	0
60.187	0.00929831	-12.3139	0
60.1876	0.00926014	-12.2527	0
60.1882	0.00920289	-12.1985	0
60.1888	0.00927923	-12.1462	0
60.1894	0.00924106	-12.0862	0
60.1902	0.00926014	-12.0148	0
60.1908	0.00924106	-11.9529	0
60.1916	0.00926014	-11.8821	0
60.1922	0.00927923	-11.8299	0
60.1928	0.00937465	-11.7725	0
60.1936	0.00926014	-11.708	0
60.1942	0.00916473	-11.6513	0
60.1948	0.00927923	-11.6009	0
60.1954	0.00922198	-11.5493	0
60.196	0.00922198	-11.4989	0
60.1966	0.00926014	-11.4472	0
60.1974	0.00927923	-11.3745	0
60.1982	0.00926014	-11.3107	0
60.1988	0.00916473	-11.2604	0
60.1996	0.00914564	-11.1991	0
60.2002	0.00924106	-11.1481	0
60.201	0.00929831	-11.0837	0
60.2018	0.00920289	-11.0148	0
60.2026	0.00929831	-10.9536	0
60.2034	0.00926014	-10.8866	0
60.2042	0.00918381	-10.8286	0
60.205	0.00922198	-10.7591	0
60.2058	0.00924106	-10.7017	0
60.2064	0.00929831	-10.6507	0
60.2072	0.00912656	-10.5933	0
60.208	0.00927923	-10.5314	0
60.2088	0.00922198	-10.4696	0
60.2096	0.00935556	-10.4179	0
60.2102	0.00922198	-10.3631	0
60.211	0.00920289	-10.3063	0
60.2118	0.00926014	-10.2476	0
60.2126	0.00914564	-10.1902	0
60.2134	0.00927923	-10.1309	0
60.2142	0.00926014	-10.0767	0
60.215	0.00927923	-10.0142	0
60.216	0.00924106	-9.94662	0
60.2168	0.00926014	-9.88476	0
60.2176	0.00920289	-9.83246	0
60.2184	0.00920289	-9.78208	0
60.2192	0.00924106	-9.72213	0
60.22	0.00929831	-9.67112	0
60.2208	0.00941281	-9.62074	0
60.2216	0.00914564	-9.5576	0
60.2224	0.00914564	-9.50339	0
60.2232	0.00926014	-9.45301	0
60.224	0.0093174	-9.40072	0
60.2248	0.00916473	-9.34906	0
60.2256	0.00922198	-9.29549	0
60.2264	0.00927923	-9.23937	0
60.2274	0.00916473	-9.1807	0
60.2282	0.00920289	-9.12904	0
60.2292	0.0093174	-9.0608	0
60.2302	0.00918381	-9.00277	0
60.2312	0.00924106	-8.94091	0
60.232	0.00926014	-8.88925	0
60.233	0.00926014	-8.82548	0
60.234	0.00926014	-8.76617	0
60.235	0.00941281	-8.71196	0
60.236	0.00924106	-8.65074	0
60.237	0.00927923	-8.59015	0
60.238	0.00924106	-8.53021	0
60.239	0.00926014	-8.47026	0
60.24	0.00929831	-8.4135	0
60.241	0.00918381	-8.36057	0
60.242	0.0093174	-8.30764	0
60.243	0.00920289	-8.25151	0
60.244	0.00926014	-8.19539	0
60.245	0.00922198	-8.13672	0
60.246	0.00924106	-8.08251	0
60.2468	0.00927923	-8.03086	0
60.248	0.00914564	-7.97537	0
60.249	0.00914564	-7.91798	0
60.2502	0.00926014	-7.85867	0
60.2514	0.00926014	-7.8	0
60.2524	0.00926014	-7.73877	0
60.2536	0.0093174	-7.68648	0
60.2546	0.00927923	-7.63482	0
60.2558	0.00918381	-7.57551	0
60.257	0.00933648	-7.52386	0
60.2582	0.00922198	-7.46072	0
60.2594	0.00920289	-7.40779	0
60.2606	0.00918381	-7.35103	0
60.2618	0.00918381	-7.29682	0
60.263	0.00926014	-7.24134	0
60.2642	0.00926014	-7.19096	0
60.2654	0.00918381	-7.13803	0
60.2666	0.00926014	-7.08573	0
60.2678	0.00929831	-7.03471	0
60.2692	0.00929831	-6.97158	0
60.2704	0.0093174	-6.92056	0
60.2716	0.00916473	-6.87018	0
60.2728	0.00920289	-6.81852	0
60.2742	0.00929831	-6.76304	0
60.2758	0.00926014	-6.70373	0
60.2772	0.00916473	-6.65016	0
60.2786	0.00920289	-6.59404	0
60.2802	0.00927923	-6.52835	0
60.2818	0.00937465	-6.47095	0
60.2834	0.00918381	-6.41866	0
60.285	0.00929831	-6.36254	0
60.2866	0.00926014	-6.31216	0
60.2878	0.00922198	-6.25795	0
60.2896	0.00929831	-6.19928	0
60.2914	0.00918381	-6.14316	0
60.293	0.0093174	-6.0915	0
60.2944	0.00924106	-6.03857	0
60.2962	0.00929831	-5.98755	0
60.2978	0.00929831	-5.93653	0
60.2996	0.00929831	-5.8785	0
60.3016	0.00924106	-5.81855	0
60.3034	0.00918381	-5.76753	0
60.3052	0.00927923	-5.71332	0
60.3072	0.00922198	-5.65657	0
60.3092	0.00929831	-5.59917	0
60.3112	0.00916473	-5.54496	0
60.3134	0.0093174	-5.49139	0
60.3154	0.00929831	-5.43846	0
60.3174	0.00914564	-5.38489	0
60.3192	0.00929831	-5.33387	0
60.3216	0.00920289	-5.28158	0
60.3236	0.00927923	-5.22609	0
60.3262	0.00926014	-5.16615	0
60.3284	0.00914564	-5.11385	0
60.3308	0.00927923	-5.06156	0
60.3332	0.0093174	-5.00671	0
60.3356	0.0093174	-4.95505	0
60.338	0.00924106	-4.90276	0
60.3404	0.00927923	-4.8511	0
60.3432	0.00920289	-4.78924	0
60.346	0.00927923	-4.73886	0
60.3484	0.00929831	-4.68657	0
60.3512	0.00916473	-4.63555	0
60.354	0.0093174	-4.58007	0
60.3568	0.00918381	-4.5265	0
60.36	0.00922198	-4.47293	0
60.3632	0.00926014	-4.41553	0
60.3666	0.00920289	-4.36515	0
60.3692	0.00924106	-4.31285	0
60.373	0.00920289	-4.25354	0
60.3732	0.00927923	-4.33879	0
60.4034	0.00918381	-3.8696	0
60.4076	0.00924106	-3.81848	0
60.412	0.00924106	-3.76825	0
60.4166	0.0093174	-3.717	0
60.4214	0.00922198	-3.66518	0
60.4262	0.00924106	-3.61501	0
60.4312	0.00916473	-3.56427	0
60.4366	0.00933648	-3.51302	0
60.442	0.00926014	-3.46216	0
60.4476	0.00916473	-3.41193	0
60.4536	0.00912656	-3.35998	0
60.4598	0.00929831	-3.30771	0
60.4662	0.00924106	-3.25665	0
60.4728	0.00922198	-3.20598	0
60.4794	0.00927923	-3.15594	0
60.4866	0.00924106	-3.1052	0
60.4938	0.00920289	-3.05484	0
60.5016	0.00926014	-3.00296	0
60.5096	0.00920289	-2.95235	0
60.5178	0.00922198	-2.90199	0
60.5262	0.00926014	-2.85119	0
60.5352	0.00929831	-2.80115	0
60.5442	0.00926014	-2.75085	0
60.554	0.00920289	-2.69967	0
60.5638	0.00927923	-2.64925	0
60.5744	0.00922198	-2.59889	0
60.5852	0.00920289	-2.54885	0
60.5964	0.00927923	-2.4983	0
60.6084	0.00924106	-2.44769	0
60.621	0.00929831	-2.39701	0
60.634	0.00927923	-2.34666	0
60.6478	0.00935556	-2.29605	0
60.6622	0.00926014	-2.24569	0
60.6772	0.00926014	-2.19565	0
60.6928	0.00914564	-2.14555	0
60.7098	0.00920289	-2.09538	0
60.7278	0.00922198	-2.04509	0
60.7468	0.00924106	-1.99428	0
60.7668	0.00922198	-1.94412	0
60.7878	0.00926014	-1.89389	0
60.811	0.00929831	-1.84277	0
60.835	0.0093174	-1.79273	0
60.8612	0.00926014	-1.74186	0
60.8892	0.00922198	-1.69169	0
60.9196	0.0093174	-1.64115	0
60.952	0.00924106	-1.59085	0
60.9868	0.00912656	-1.54081	0
61.024	0.00927923	-1.49052	0
61.0656	0.00908839	-1.43997	0
61.11	0.00929831	-1.38955	0
61.1594	0.00920289	-1.33919	0
61.213	0.00924106	-1.28833	0
61.2724	0.00926014	-1.23778	0
61.338	0.00924106	-1.18774	0
61.4108	0.00927923	-1.13751	0
61.4922	0.00929831	-1.08741	0
61.5804	0.00918381	-1.03731	0
61.684	0.00924106	-0.987012	0
61.8006	0.00916473	-0.936973	0
61.9358	0.00933648	-0.886552	0
62.0906	0.00926014	-0.836513	0
62.272	0.00924106	-0.786283	0
62.485	0.00924106	-0.736244	0
62.739	0.00922198	-0.686014	0
63.046	0.00927923	-0.635657	0
63.428	0.00926014	-0.585236	0
63.8964	0.00927923	-0.535197	0
64.5062	0.00935556	-0.484904	0
65.0528	0.00924106	-0.451099	0
65.0534	0.00916473	-0.450207	0
66.1498	0.00924106	-0.400194	0
67.6282	0.00929831	-0.350184	0
69.8688	0.00920289	-0.300161	0
73.5746	0.00926014	-0.250094	0
80.2246	0.00927923	-0.20002	0
90.2246	0.00922198	-0.159822	0
100.225	0.00908839	-0.136033	0
110.225	0.00927923	-0.119586	0
120.225	0.00933648	-0.107201	0
130.225	0.00916473	-0.0972615	0
140.225	0.00924106	-0.0890539	0
150.225	0.00908839	-0.0825654	0
160.225	0.00922198	-0.07651	0
170.225	0.00924106	-0.0713587	0
180.225	0.00924106	-0.0668378	0
190.225	0.00926014	-0.0627244	0
200.225	0.00918381	-0.0595279	0
210.225	0.00922198	-0.056255	0
220.225	0.00920289	-0.0536444	0
230.225	0.00920289	-0.0508172	0
240.225	0.00918381	-0.0486141	0
250.225	0.00916473	-0.0463918	0
260.225	0.00920289	-0.0446153	0
270.225	0.00926014	-0.0427984	0
280.225	0.00924106	-0.0410516	0
290.225	0.00924106	-0.0394831	0
300.225	0.00926014	-0.0379718	0
310.225	0.00916473	-0.0366763	0
320.225	0.00918381	-0.035505	0
330.225	0.0093174	-0.0342439	0
340.225	0.00916473	-0.0330669	0
350.225	0.00918381	-0.0321075	0
360.225	0.00918381	-0.0310457	0
370.225	0.00926014	-0.0301927	0
380.225	0.00924106	-0.0293746	0
390.225	0.00918381	-0.028605	0
400.225	0.00918381	-0.0278322	0
410.225	0.0093174	-0.0270072	0
420.225	0.00916473	-0.0262878	0
430.225	0.00927923	-0.0255882	0
440.225	0.00924106	-0.0249777	0
450.225	0.00918381	-0.0243208	0
460.225	0.00929831	-0.0237886	0
470.225	0.00906931	-0.0232093	0
480.225	0.00920289	-0.0226663	0
490.225	0.00922198	-0.0220475	0
500.225	0.00924106	-0.0215987	0
510.225	0.00926014	-0.0210691	0
520.225	0.00914564	-0.0206164	0
530.225	0.00924106	-0.0201715	0
540.225	0.00920289	-0.0198207	0
550.225	0.00916473	-0.0193012	0
560.225	0.00922198	-0.0189524	0
570.225	0.00918381	-0.0185851	0
580.225	0.00914564	-0.0183126	0
590.225	0.00920289	-0.0178848	0
600.225	0.00924106	-0.0175283	0
610.225	0.00924106	-0.0171649	0
620.225	0.00918381	-0.0169446	0
630.225	0.00939373	-0.01659	0
640.225	0.00922198	-0.0162456	0
650.225	0.00929831	-0.0160203	0
660.225	0.00914564	-0.0157211	0
670.225	0.00922198	-0.0154607	0
680.225	0.00929831	-0.015143	0
690.225	0.00914564	-0.0148687	0
700.225	0.00918381	-0.0145803	0
710.225	0.00910748	-0.0144702	0
720.225	0.00920289	-0.0141481	0
730.225	0.0093174	-0.0140023	0
740.225	0.00916473	-0.0137858	0
750.225	0.00922198	-0.0135497	0
760.225	0.00922198	-0.013344	0
770.225	0.0093174	-0.0131983	0
780.225	0.00927923	-0.0129347	0
790.225	0.00929831	-0.0126553	0
800.225	0.0093174	-0.012491	0
810.225	0.00922198	-0.0123554	0
820.225	0.00926014	-0.0121422	0
830.225	0.00926014	-0.0120295	0
840.225	0.00922198	-0.0117729	0
850.225	0.00920289	-0.0116214	0
860.225	0.00926014	-0.0114788	0
870.225	0.00924106	-0.011307	0
880.225	0.00916473	-0.0111835	0
890.225	0.00926014	-0.01103	0
900.225	0.00910748	-0.0108231	0
910.225	0.00920289	-0.0106742	0
920.225	0.00916473	-0.0105634	0
930.225	0.00927923	-0.0103769	0
940.225	0.00918381	-0.0103419	0
950.225	0.00924106	-0.0101916	0
960.225	0.00922198	-0.00998221	0
970.225	0.00922198	-0.00985362	0
980.225	0.00924106	-0.00980969	0
990.225	0.00927923	-0.00966964	0
1000.22	0.00912656	-0.0095315	0
1010.22	0.00927923	-0.00940864	0
1020.22	0.00922198	-0.00932716	0
1030.22	0.00920289	-0.0090426	0
1040.22	0.00920289	-0.0090356	0
1050.22	0.00927923	-0.008886	0
1060.22	0.00912656	-0.00880515	0
1070.22	0.00910748	-0.00871476	0
1080.22	0.00920289	-0.00861227	0
1090.22	0.00914564	-0.00852951	0
1100.22	0.00927923	-0.00847158	0
1110.22	0.00927923	-0.0083449	0
1120.22	0.00912656	-0.00823923	0
1130.22	0.00918381	-0.00814055	0
1140.22	0.00933648	-0.00811318	0
1150.22	0.00920289	-0.00789292	0
1160.22	0.00920289	-0.00790183	0
1170.22	0.00922198	-0.0077917	0
1180.22	0.00922198	-0.00766693	0
1190.22	0.00922198	-0.00762237	0
1200.22	0.00920289	-0.00765484	0
1210.22	0.00924106	-0.00748932	0
1220.22	0.00920289	-0.00744922	0
1230.22	0.00918381	-0.00734991	0
1240.22	0.00912656	-0.00729134	0
1250.22	0.00912656	-0.00707681	0
1260.22	0.00914564	-0.00711055	0
1270.22	0.00924106	-0.00705708	0
1280.22	0.00929831	-0.00690875	0
1290.22	0.00920289	-0.00702398	0
1300.22	0.00929831	-0.00689729	0
1310.22	0.00920289	-0.00668913	0
1320.22	0.00920289	-0.00666494	0
1330.22	0.00924106	-0.00668085	0
1340.22	0.00916473	-0.00661847	0
1350.22	0.00924106	-0.00654017	0
1360.22	0.00922198	-0.00650134	0
1370.22	0.00927923	-0.00636638	0
1380.22	0.00918381	-0.00634792	0
1390.22	0.00922198	-0.00624925	0
1400.22	0.00924106	-0.00626325	0
1410.22	0.00924106	-0.00623715	0
1420.22	0.00926014	-0.00615758	0
1430.22	0.00927923	-0.00605254	0
1440.22	0.0093174	-0.00598952	0
1450.22	0.00916473	-0.00600161	0
1460.22	0.00933648	-0.00590803	0
1470.22	0.00916473	-0.00585902	0
1480.22	0.00926014	-0.00581382	0
1490.22	0.00924106	-0.00583483	0
1500.22	0.00920289	-0.00580236	0
1510.22	0.00916473	-0.00567759	0
1520.22	0.00927923	-0.00559292	0
1530.22	0.00924106	-0.00560247	0
1540.22	0.00927923	-0.00557255	0
1550.22	0.00927923	-0.00547452	0
1560.22	0.00908839	-0.00551335	0
1570.22	0.00918381	-0.00541722	0
1580.22	0.00924106	-0.00535102	0
1590.22	0.00922198	-0.00528354	0
1600.22	0.00924106	-0.00527972	0
1610.22	0.00918381	-0.00529054	0
1620.22	0.00918381	-0.00516577	0
1630.22	0.00929831	-0.00511166	0
1640.22	0.00918381	-0.0051855	0
1650.22	0.0093174	-0.0050862	0
1660.22	0.0093174	-0.00502508	0
1670.22	0.00929831	-0.00498816	0
1680.22	0.00918381	-0.0050028	0
1690.22	0.00926014	-0.00501681	0
1700.22	0.00918381	-0.00490349	0
1710.22	0.00926014	-0.00482138	0
1720.22	0.00926014	-0.00484748	0
1730.22	0.00912656	-0.00477236	0
1740.22	0.00916473	-0.004787	0
1750.22	0.00933648	-0.00465077	0
1760.22	0.00920289	-0.00469215	0
1770.22	0.0093174	-0.00467878	0
1780.22	0.00920289	-0.00459411	0
1790.22	0.00920289	-0.00456801	0
1800.22	0.00914564	-0.00448589	0
1810.22	0.00922198	-0.0045069	0
1820.22	0.00918381	-0.0045337	0
1830.22	0.00916473	-0.00450836	0
1840.22	0.00924106	-0.00448321	0
1850.22	0.00916473	-0.00444182	0
1860.22	0.00926014	-0.00440171	0
1870.22	0.00924106	-0.00438381	0
1880.22	0.00912656	-0.00435115	0
1890.22	0.00920289	-0.00431256	0
1900.22	0.00908839	-0.0042841	0
1910.22	0.00922198	-0.00427633	0
1920.22	0.00922198	-0.00427461	0
1930.22	0.00920289	-0.00424118	0
1940.22	0.00916473	-0.00420387	0
1950.22	0.00916473	-0.00417655	0
1960.22	0.00927923	-0.00412733	0
1970.22	0.00920289	-0.00412332	0
1980.22	0.00926014	-0.00408047	0
1990.22	0.00918381	-0.00406977	0
2000.22	0.00918381	-0.00406098	0
2010.22	0.00920289	-0.00403831	0
2020.22	0.00924106	-0.00399648	0
2030.22	0.00920289	-0.00395171	0
2031.8	0.00914564	-0.0039144	0
2031.8	0.00933648	-0.00391109	0