File: EXPERIMENTAL/DATA/Cycling data Master thesis/I-cell/2024-04-24_JP-measurements_sample-A4-01_M-cell_Cu-Li-Cellgard2400-separator_25muL-LiFSI-in-DME_outside-glovebox_sigma-0.02_added-OCV-0.1s_Deltax110.4mm_02_MB_C11.txt
time/s	Ewe/V	I/mA	error
60.053	2.82597	-0.025006	0
60.1732	0.00911828	-11.7062	0
60.1738	0.0090992	-11.6413	0
60.1744	0.00906102	-11.5732	0
60.175	0.00913737	-11.5064	0
60.1756	0.00906102	-11.439	0
60.1762	0.00906102	-11.3639	0
60.1768	0.00911828	-11.3041	0
60.1774	0.0090992	-11.2399	0
60.178	0.00915646	-11.1788	0
60.1786	0.00911828	-11.1095	0
60.1792	0.00908011	-11.0484	0
60.1798	0.00904193	-10.988	0
60.1804	0.00906102	-10.9193	0
60.181	0.00902284	-10.8556	0
60.1816	0.00908011	-10.8016	0
60.1822	0.0090992	-10.7399	0
60.1828	0.00911828	-10.6788	0
60.1834	0.0090992	-10.619	0
60.184	0.00890832	-10.556	0
60.1846	0.00908011	-10.5038	0
60.1852	0.00911828	-10.439	0
60.1858	0.00906102	-10.3792	0
60.1864	0.0090992	-10.3213	0
60.187	0.00915646	-10.2608	0
60.1876	0.00906102	-10.2055	0
60.1884	0.0090992	-10.1317	0
60.1892	0.00908011	-10.0573	0
60.1898	0.00902284	-9.99937	0
60.1906	0.00913737	-9.93003	0
60.1914	0.00906102	-9.86005	0
60.192	0.00908011	-9.80471	0
60.1928	0.00915646	-9.73537	0
60.1934	0.00911828	-9.6813	0
60.1942	0.0090992	-9.61132	0
60.195	0.00904193	-9.5388	0
60.1958	0.00906102	-9.47773	0
60.1964	0.00904193	-9.42493	0
60.1972	0.00902284	-9.35622	0
60.1978	0.00902284	-9.30533	0
60.1986	0.00906102	-9.24299	0
60.1992	0.00911828	-9.187	0
60.2	0.00921372	-9.13039	0
60.2006	0.00902284	-9.08013	0
60.2014	0.00913737	-9.01906	0
60.2022	0.00896558	-8.96499	0
60.2028	0.00908011	-8.91346	0
60.2036	0.00906102	-8.84793	0
60.2044	0.00913737	-8.79068	0
60.205	0.0090992	-8.73534	0
60.206	0.00908011	-8.66409	0
60.2068	0.00919464	-8.61383	0
60.2074	0.0090992	-8.5623	0
60.2082	0.00906102	-8.50378	0
60.209	0.00902284	-8.44461	0
60.2098	0.00906102	-8.38927	0
60.2106	0.00915646	-8.33011	0
60.2114	0.00906102	-8.27412	0
60.2122	0.00911828	-8.2226	0
60.213	0.00902284	-8.16916	0
60.2138	0.00919464	-8.10554	0
60.2148	0.00906102	-8.04893	0
60.2156	0.00906102	-7.9834	0
60.2166	0.00894649	-7.92233	0
60.2174	0.00913737	-7.87017	0
60.2184	0.00902284	-7.80528	0
60.2194	0.0090992	-7.74166	0
60.2204	0.00900376	-7.67805	0
60.2214	0.0090992	-7.61761	0
60.2224	0.0090992	-7.55209	0
60.2234	0.00908011	-7.49611	0
60.2242	0.00900376	-7.44267	0
60.2252	0.00913737	-7.38096	0
60.2262	0.00896558	-7.32816	0
60.2272	0.00908011	-7.26582	0
60.2282	0.00908011	-7.21238	0
60.2292	0.00908011	-7.15131	0
60.2302	0.00902284	-7.09724	0
60.2312	0.00902284	-7.04126	0
60.2322	0.00906102	-6.98337	0
60.2332	0.00906102	-6.92993	0
60.2342	0.00911828	-6.86886	0
60.2354	0.0090992	-6.81415	0
60.2364	0.00911828	-6.76071	0
60.2374	0.00904193	-6.70346	0
60.2386	0.00911828	-6.63857	0
60.2398	0.00906102	-6.58323	0
60.2408	0.00902284	-6.53043	0
60.242	0.00902284	-6.46745	0
60.2432	0.00904193	-6.41083	0
60.2444	0.00904193	-6.35612	0
60.2454	0.00902284	-6.30205	0
60.2466	0.00902284	-6.24988	0
60.2478	0.00908011	-6.19072	0
60.249	0.00915646	-6.13728	0
60.2502	0.00902284	-6.08448	0
60.2512	0.0090992	-6.03296	0
60.2528	0.00906102	-5.97634	0
60.254	0.00904193	-5.91908	0
60.2552	0.00902284	-5.86883	0
60.2564	0.00904193	-5.81475	0
60.2578	0.00906102	-5.76323	0
60.2592	0.0090992	-5.69898	0
60.2608	0.0090992	-5.63981	0
60.2624	0.00919464	-5.57874	0
60.2638	0.00900376	-5.5253	0
60.2654	0.00906102	-5.46169	0
60.267	0.00908011	-5.40762	0
60.2686	0.00904193	-5.35036	0
60.27	0.0090992	-5.29947	0
60.2718	0.00915646	-5.23458	0
60.2734	0.00906102	-5.18115	0
60.2754	0.00908011	-5.12326	0
60.277	0.00900376	-5.07045	0
60.2786	0.00908011	-5.01575	0
60.2804	0.00911828	-4.95277	0
60.2826	0.0090992	-4.90124	0
60.2844	0.00904193	-4.83571	0
60.2864	0.00896558	-4.78546	0
60.2882	0.00906102	-4.7352	0
60.29	0.00900376	-4.68367	0
60.2922	0.00900376	-4.61815	0
60.2942	0.00902284	-4.5628	0
60.2964	0.00913737	-4.51191	0
60.2986	0.00904193	-4.45848	0
60.3008	0.00896558	-4.40377	0
60.3032	0.00898467	-4.34906	0
60.3052	0.00911828	-4.29689	0
60.3076	0.0090992	-4.24282	0
60.31	0.00904193	-4.19129	0
60.3124	0.0090992	-4.1404	0
60.3146	0.00904193	-4.09014	0
60.3174	0.00908011	-4.03289	0
60.32	0.00915646	-3.98136	0
60.3226	0.00919464	-3.92983	0
60.3252	0.00908011	-3.87767	0
60.3282	0.00902284	-3.82041	0
60.3314	0.00911828	-3.76825	0
60.334	0.00902284	-3.71736	0
60.3374	0.0090992	-3.66392	0
60.3402	0.00908011	-3.60794	0
60.3436	0.00906102	-3.55386	0
60.3468	0.0090992	-3.50234	0
60.35	0.00900376	-3.44954	0
60.3536	0.0090992	-3.39928	0
60.357	0.00906102	-3.34902	0
60.3608	0.00911828	-3.29495	0
60.3642	0.0090992	-3.24469	0
60.368	0.00908011	-3.19317	0
60.3718	0.00917555	-3.14291	0
60.3732	0.00908011	-3.19604	0
60.4034	0.00908011	-2.81903	0
60.4084	0.00917555	-2.76865	0
60.4138	0.00902284	-2.71636	0
60.4194	0.00911828	-2.66497	0
60.4252	0.0090992	-2.61395	0
60.4314	0.00911828	-2.5616	0
60.4378	0.00906102	-2.51053	0
60.4444	0.00911828	-2.45958	0
60.4514	0.00921372	-2.40901	0
60.4588	0.00902284	-2.3578	0
60.4664	0.00906102	-2.30762	0
60.4744	0.00898467	-2.2573	0
60.4828	0.00898467	-2.20673	0
60.4918	0.00904193	-2.15636	0
60.5014	0.00900376	-2.10515	0
60.5116	0.0090992	-2.05363	0
60.5222	0.0090992	-2.00357	0
60.5334	0.0090992	-1.95351	0
60.5454	0.00906102	-1.90224	0
60.5582	0.00908011	-1.85205	0
60.5718	0.00900376	-1.80142	0
60.5864	0.00904193	-1.75123	0
60.6016	0.00908011	-1.70092	0
60.6182	0.0090992	-1.65067	0
60.6358	0.00917555	-1.59927	0
60.6552	0.0090992	-1.54909	0
60.6756	0.00898467	-1.49775	0
60.6978	0.00896558	-1.44649	0
60.7218	0.00908011	-1.39598	0
60.7472	0.00904193	-1.34567	0
60.7752	0.00904193	-1.2944	0
60.8054	0.0090992	-1.24434	0
60.8378	0.00913737	-1.19402	0
60.8734	0.00913737	-1.14301	0
60.9122	0.0090992	-1.09289	0
60.9544	0.00906102	-1.04245	0
61.0004	0.00892741	-0.992068	0
61.0522	0.00902284	-0.942008	0
61.1092	0.00911828	-0.891948	0
61.1726	0.00908011	-0.841761	0
61.2438	0.00908011	-0.79151	0
61.325	0.00908011	-0.741323	0
61.4178	0.00906102	-0.690818	0
61.5244	0.00902284	-0.64044	0
61.6498	0.00904193	-0.590317	0
61.7974	0.0090992	-0.539621	0
61.9762	0.00904193	-0.489498	0
62.1958	0.00896558	-0.438865	0
62.5002	0.00915646	-0.388737	0
62.871	0.00913737	-0.338708	0
63.3726	0.00898467	-0.288692	0
64.0962	0.00896558	-0.238637	0
65.0528	0.00908011	-0.194958	0
65.0534	0.00911828	-0.194653	0
66.8756	0.00908011	-0.144535	0
70.754	0.00894649	-0.0945317	0
80.754	0.00915646	-0.0503819	0
90.754	0.00906102	-0.0344744	0
100.754	0.0090992	-0.0258601	0
110.754	0.00904193	-0.0206504	0
120.754	0.00913737	-0.0171938	0
130.754	0.00898467	-0.0146614	0
140.754	0.00915646	-0.0126818	0
150.754	0.00906102	-0.01122	0
160.754	0.00908011	-0.0101895	0
170.754	0.00902284	-0.0091336	0
180.754	0.00917555	-0.00835182	0
190.754	0.00896558	-0.00797778	0
200.754	0.00900376	-0.00716483	0
210.754	0.00904193	-0.00676472	0
220.754	0.00904193	-0.00626283	0
230.754	0.00898467	-0.00590025	0
240.754	0.00902284	-0.00555229	0
250.754	0.00908011	-0.0052495	0
260.754	0.00900376	-0.00495435	0
270.754	0.00894649	-0.00648483	0
280.754	0.00906102	-0.00469291	0
290.754	0.00890832	-0.00446425	0
300.754	0.00902284	-0.00426046	0
310.754	0.00908011	-0.00451414	0
320.754	0.00900376	-0.00394354	0
330.754	0.0090992	-0.00381731	0
340.754	0.00900376	-0.00376921	0
350.754	0.00904193	-0.00356274	0
360.754	0.00902284	-0.00346947	0
370.754	0.00894649	-0.00340915	0
380.754	0.00906102	-0.00329857	0
390.754	0.00900376	-0.00336315	0
400.754	0.00908011	-0.00307213	0
410.754	0.00913737	-0.00306207	0
420.754	0.00892741	-0.00295945	0
430.754	0.00896558	-0.00289429	0
440.754	0.00894649	-0.00287444	0
450.754	0.00902284	-0.00283843	0
460.754	0.0090992	-0.00271856	0
470.754	0.00906102	-0.00263457	0
480.754	0.00904193	-0.0026041	0
490.754	0.00904193	-0.00250891	0
500.754	0.00904193	-0.00249555	0
510.754	0.00902284	-0.00243155	0
520.754	0.00911828	-0.00236079	0
530.754	0.00900376	-0.00235023	0
540.754	0.00902284	-0.00236951	0
550.754	0.00902284	-0.00229424	0
560.754	0.00904193	-0.00225288	0
570.754	0.00906102	-0.00247513	0
580.754	0.00904193	-0.00220014	0
590.754	0.00896558	-0.00230856	0
600.754	0.00902284	-0.00213804	0
610.754	0.00902284	-0.00208294	0
620.754	0.00906102	-0.00210737	0
630.754	0.00898467	-0.00208275	0
640.754	0.00908011	-0.00193813	0
650.754	0.00913737	-0.00196072	0
660.754	0.00904193	-0.00193151	0
670.754	0.0090992	-0.00189385	0
680.754	0.0090992	-0.00188048	0
690.754	0.00904193	-0.00187247	0
700.754	0.00900376	-0.00180025	0
710.754	0.00913737	-0.00181202	0
720.754	0.00904193	-0.00177067	0
730.754	0.00898467	-0.00176965	0
740.754	0.00919464	-0.00172651	0
750.754	0.00902284	-0.00171608	0
760.754	0.00908011	-0.00170488	0
770.754	0.00898467	-0.00167987	0
780.754	0.00906102	-0.00166524	0
790.754	0.00911828	-0.00163005	0
800.754	0.00904193	-0.00166511	0
810.754	0.00900376	-0.00172237	0
820.754	0.00908011	-0.00163292	0
830.754	0.00902284	-0.00158113	0
840.754	0.00900376	-0.00157292	0
850.754	0.00908011	-0.00199119	0
860.754	0.00898467	-0.00152405	0
870.754	0.00904193	-0.0015474	0
880.754	0.00904193	-0.00151674	0
890.754	0.00906102	-0.0015453	0
900.754	0.00900376	-0.00151871	0
910.754	0.00898467	-0.00147233	0
920.754	0.00913737	-0.00146679	0
930.754	0.00904193	-0.00151127	0
940.754	0.00906102	-0.00141729	0
950.754	0.00898467	-0.00145814	0
960.754	0.00900376	-0.00169139	0
970.754	0.00906102	-0.00183111	0
980.754	0.00908011	-0.00147201	0
990.754	0.00904193	-0.00144312	0
1000.75	0.00900376	-0.0013774	0
1010.75	0.00906102	-0.00133375	0
1020.75	0.00900376	-0.00136276	0
1030.75	0.00900376	-0.00140787	0
1040.75	0.00915646	-0.00135207	0
1050.75	0.00894649	-0.00135239	0
1060.75	0.00902284	-0.00133808	0
1070.75	0.00902284	-0.00129621	0
1080.75	0.00902284	-0.00130779	0
1090.75	0.00904193	-0.00124582	0
1100.75	0.00904193	-0.00125721	0
1110.75	0.00904193	-0.00130162	0
1120.75	0.00902284	-0.00123647	0
1130.75	0.00898467	-0.00126529	0
1140.75	0.00911828	-0.00120701	0
1150.75	0.0090992	-0.0013718	0
1160.75	0.00902284	-0.00118207	0
1170.75	0.00904193	-0.00118862	0
1180.75	0.0090992	-0.00117278	0
1190.75	0.00906102	-0.00118022	0
1200.75	0.00906102	-0.00120491	0
1210.75	0.00919464	-0.0012826	0
1220.75	0.0090992	-0.00122686	0
1230.75	0.00894649	-0.00114682	0
1240.75	0.00908011	-0.00123017	0
1250.75	0.00904193	-0.00111602	0
1260.75	0.00900376	-0.00114389	0
1270.75	0.00904193	-0.00125829	0
1280.75	0.00919464	-0.00107568	0
1290.75	0.00904193	-0.0011145	0
1300.75	0.00904193	-0.00106512	0
1310.75	0.00902284	-0.00113715	0
1320.75	0.00904193	-0.00112665	0
1330.75	0.00915646	-0.00107543	0
1340.75	0.00892741	-0.00109554	0
1350.75	0.00904193	-0.00107219	0
1360.75	0.00904193	-0.00106799	0
1370.75	0.00904193	-0.00102924	0
1380.75	0.00904193	-0.00101435	0
1390.75	0.00906102	-0.00103134	0
1400.75	0.00913737	-0.00101308	0
1410.75	0.00906102	-0.00103127	0
1420.75	0.00892741	-0.0011521	0
1430.75	0.00902284	-0.00102707	0
1440.75	0.00896558	-0.00102968	0
1450.75	0.00904193	-0.00105545	0
1460.75	0.00906102	-0.000990363	0
1470.75	0.00896558	-0.000977892	0
1480.75	0.0090992	-0.000998761	0
1490.75	0.00904193	-0.00103452	0
1500.75	0.00906102	-0.00098031	0
1510.75	0.00906102	-0.00105545	0
1520.75	0.00894649	-0.000969112	0
1530.75	0.00902284	-0.000988709	0
1540.75	0.00906102	-0.00104184	0
1550.75	0.00917555	-0.00114275	0
1560.75	0.00902284	-0.000917512	0
1570.75	0.00896558	-0.00095346	0
1580.75	0.00908011	-0.000936218	0
1590.75	0.00896558	-0.00102606	0
1600.75	0.00904193	-0.00105329	0
1610.75	0.00915646	-0.00103178	0
1620.75	0.00904193	-0.000935518	0
1630.75	0.00904193	-0.000974902	0
1640.75	0.00896558	-0.000960332	0
1650.75	0.00894649	-0.000892634	0
1660.75	0.00900376	-0.000889325	0
1670.75	0.00896558	-0.000992081	0
1680.75	0.00906102	-0.000916239	0
1690.75	0.00898467	-0.000880609	0
1700.75	0.00904193	-0.00111621	0
1710.75	0.00902284	-0.000861967	0
1720.75	0.00900376	-0.00087431	0
1730.75	0.00904193	-0.000850832	0
1740.75	0.00906102	-0.000849305	0
1750.75	0.00904193	-0.000893207	0
1760.75	0.00908011	-0.000872528	0
1770.75	0.00902284	-0.000864893	0
1780.75	0.00904193	-0.000878446	0
1790.75	0.00911828	-0.000830408	0
1800.75	0.00902284	-0.000846442	0
1810.75	0.00896558	-0.000815902	0
1820.75	0.00902284	-0.000858976	0
1830.75	0.00906102	-0.000886335	0
1840.75	0.0090992	-0.000836898	0
1850.75	0.00902284	-0.000841097	0
1860.75	0.00913737	-0.000832953	0
1870.75	0.00911828	-0.000824682	0
1880.75	0.00902284	-0.000818319	0
1890.75	0.00913737	-0.000795859	0
1900.75	0.0090992	-0.000814375	0
1910.75	0.00908011	-0.000872846	0
1920.75	0.00902284	-0.000856049	0
1930.75	0.00906102	-0.000801713	0
1940.75	0.00913737	-0.000809857	0
1950.75	0.00904193	-0.000801777	0
1960.75	0.00913737	-0.000775436	0
1970.75	0.00896558	-0.000798214	0
1980.75	0.00904193	-0.000745404	0
1990.75	0.00913737	-0.000828563	0
2000.75	0.00902284	-0.000785425	0
2010.75	0.00908011	-0.000779126	0
2020.75	0.00896558	-0.000811448	0
2030.75	0.00908011	-0.00078727	0
2040.75	0.00902284	-0.000765765	0
2050.75	0.00906102	-0.000776136	0
2060.75	0.00892741	-0.000791533	0
2070.75	0.0090992	-0.000813293	0
2080.75	0.00900376	-0.000837662	0
2090.75	0.00908011	-0.000983173	0
2100.75	0.00906102	-0.000805785	0
2110.75	0.00904193	-0.000777663	0
2120.75	0.00904193	-0.000761565	0
2130.75	0.00908011	-0.000725044	0
2140.75	0.00906102	-0.000740314	0
2150.75	0.00913737	-0.000766083	0
2160.75	0.00913737	-0.00072269	0
2170.75	0.00902284	-0.000765892	0
2180.75	0.00906102	-0.00072708	0
2190.75	0.00902284	-0.000776136	0
2200.75	0.00915646	-0.000710347	0
2210.75	0.00898467	-0.000709647	0
2220.75	0.00906102	-0.000716391	0
2230.75	0.00911828	-0.000695077	0
2240.75	0.00911828	-0.000693486	0
2250.75	0.00896558	-0.000707166	0
2260.75	0.0090992	-0.000712701	0
2270.75	0.00904193	-0.000700549	0
2280.75	0.00908011	-0.000663391	0
2290.75	0.00904193	-0.000701121	0
2300.75	0.0090992	-0.000707547	0
2310.75	0.00900376	-0.000687251	0
2320.75	0.0090992	-0.000714101	0
2330.75	0.00906102	-0.000751894	0
2340.75	0.0090992	-0.000768946	0
2350.75	0.00906102	-0.000693232	0
2360.75	0.0090992	-0.000692913	0
2370.75	0.00902284	-0.000806421	0
2380.75	0.00900376	-0.000696922	0
2390.75	0.00911828	-0.00066829	0
2400.75	0.00902284	-0.000667718	0
2410.75	0.00898467	-0.000674335	0
2420.75	0.00911828	-0.000634251	0
2430.75	0.0090992	-0.00065811	0
2440.75	0.00904193	-0.000658747	0
2450.75	0.00906102	-0.000667209	0
2460.75	0.00906102	-0.00063495	0
2470.75	0.00904193	-0.00069355	0
2480.75	0.00906102	-0.000669881	0
2490.75	0.00915646	-0.000654165	0
2500.75	0.00908011	-0.000646339	0
2510.75	0.00902284	-0.000677452	0
2520.75	0.00917555	-0.000659001	0
2530.75	0.00904193	-0.000652193	0
2540.75	0.00906102	-0.000638323	0
2550.75	0.00906102	-0.000616181	0
2560.75	0.00906102	-0.000647612	0
2570.75	0.0090992	-0.000622225	0
2580.75	0.00902284	-0.000630115	0
2590.75	0.00908011	-0.000616372	0
2600.75	0.00902284	-0.000628524	0
2610.75	0.00904193	-0.000609755	0
2620.75	0.00900376	-0.000606764	0
2630.75	0.00902284	-0.000647103	0
2640.75	0.00902284	-0.000601738	0
2650.75	0.00894649	-0.000627379	0
2660.75	0.00896558	-0.000619108	0
2670.75	0.00906102	-0.000628588	0
2680.75	0.00904193	-0.000647803	0
2690.75	0.0090992	-0.0010685	0
2700.75	0.00911828	-0.0006137	0
2710.75	0.00911828	-0.000615481	0
2720.75	0.00908011	-0.000591303	0
2730.75	0.00902284	-0.000592131	0
2740.75	0.0090992	-0.000595566	0
2750.75	0.00913737	-0.000577751	0
2760.75	0.00902284	-0.000580233	0
2770.75	0.00896558	-0.000573552	0
2780.75	0.00915646	-0.000574506	0
2790.75	0.00919464	-0.000612554	0
2800.75	0.00904193	-0.000582587	0
2810.75	0.00906102	-0.000694377	0
2820.75	0.00900376	-0.000618344	0
2830.75	0.00906102	-0.000588949	0
2840.75	0.0090992	-0.000610137	0
2850.75	0.00906102	-0.000567635	0
2860.75	0.00898467	-0.000562736	0
2870.75	0.00898467	-0.000596012	0
2880.75	0.00906102	-0.000560509	0
2890.75	0.00900376	-0.000606701	0
2900.75	0.00906102	-0.000653466	0
2910.75	0.00908011	-0.000585895	0
2920.75	0.0090992	-0.000586977	0
2930.75	0.00900376	-0.000577369	0
2940.75	0.00908011	-0.000577942	0
2950.75	0.00904193	-0.000601738	0
2960.75	0.00900376	-0.000572852	0
2970.75	0.00900376	-0.00059932	0
2980.75	0.00908011	-0.000585577	0
2990.75	0.00896558	-0.000564517	0
3000.75	0.00900376	-0.000548674	0
3010.75	0.00898467	-0.000572152	0
3020.75	0.00908011	-0.000536904	0
3030.75	0.00898467	-0.000537985	0
3040.75	0.00900376	-0.000552555	0
3050.75	0.00894649	-0.000555737	0
3060.75	0.00913737	-0.000547784	0
3070.75	0.00900376	-0.000553255	0
3080.75	0.00900376	-0.000540657	0
3090.75	0.00904193	-0.000529968	0
3100.75	0.00906102	-0.000513553	0
3110.75	0.00904193	-0.000523733	0
3120.75	0.00908011	-0.000543521	0
3130.75	0.00902284	-0.000527742	0
3140.75	0.00917555	-0.000531177	0
3150.75	0.00904193	-0.000549565	0
3160.75	0.0090992	-0.000540657	0
3170.75	0.00913737	-0.000525324	0
3180.75	0.0090992	-0.000746613	0
3190.75	0.00904193	-0.000705257	0
3200.75	0.00900376	-0.0005593	0
3210.75	0.00898467	-0.000761502	0
3220.75	0.00915646	-0.000580169	0
3230.75	0.00902284	-0.00052297	0
3240.75	0.00906102	-0.000532386	0
3250.75	0.00908011	-0.000505536	0
3260.75	0.00911828	-0.00047595	0
3270.75	0.00917555	-0.000508208	0
3280.75	0.00906102	-0.000611854	0
3290.75	0.00906102	-0.000513108	0
3300.75	0.00908011	-0.000487785	0
3310.75	0.00890832	-0.000514953	0
3320.75	0.0090992	-0.000492684	0
3330.75	0.00904193	-0.000498665	0
3340.75	0.00904193	-0.000483076	0
3350.75	0.00908011	-0.000493702	0
3360.75	0.00898467	-0.000534804	0
3370.75	0.00913737	-0.000584941	0
3380.75	0.00908011	-0.000542566	0
3390.75	0.00906102	-0.000496056	0
3400.75	0.00908011	-0.00048543	0
3410.75	0.00904193	-0.000545429	0
3420.75	0.00902284	-0.000490902	0
3430.75	0.00919464	-0.000485049	0
3440.75	0.00900376	-0.000489184	0
3450.75	0.00906102	-0.000480277	0
3460.75	0.00902284	-0.000487212	0
3470.75	0.00904193	-0.00049542	0
3480.75	0.00904193	-0.000529968	0
3490.75	0.00904193	-0.000532259	0
3500.75	0.00911828	-0.000502164	0
3510.75	0.0090992	-0.00048314	0
3520.75	0.00911828	-0.000484667	0
3530.75	0.00900376	-0.000473851	0
3540.75	0.0090992	-0.000478941	0
3550.75	0.00917555	-0.000464052	0
3560.75	0.00908011	-0.000463289	0
3570.75	0.00913737	-0.000491857	0
3580.75	0.0090992	-0.000477732	0
3590.75	0.00908011	-0.000580105	0
3600.75	0.00906102	-0.000481295	0
3610.75	0.00904193	-0.000489057	0
3620.75	0.00900376	-0.000475441	0
3630.75	0.00902284	-0.000500001	0
3640.75	0.00904193	-0.000477605	0
3650.75	0.00913737	-0.000476777	0
3660.75	0.00913737	-0.00050719	0
3670.75	0.0090992	-0.000517116	0
3680.75	0.00906102	-0.000465579	0
3690.75	0.00904193	-0.000461316	0
3700.75	0.0090992	-0.00047665	0
3710.75	0.00913737	-0.00045928	0
3720.75	0.00902284	-0.000471178	0
3730.75	0.00911828	-0.000452409	0
3740.75	0.00898467	-0.000459853	0
3750.75	0.00911828	-0.000454508	0
3760.75	0.00900376	-0.000435421	0
3770.75	0.00900376	-0.000431285	0
3780.75	0.00906102	-0.000424668	0
3790.75	0.00898467	-0.000453999	0
3800.75	0.00906102	-0.000439366	0
3810.75	0.00902284	-0.000468379	0
3820.75	0.00904193	-0.000449355	0
3830.75	0.00904193	-0.000620889	0
3840.75	0.00898467	-0.000447891	0
3850.75	0.0090992	-0.000491857	0
3860.75	0.00898467	-0.000455081	0
3870.75	0.0090992	-0.000444519	0
3880.75	0.00902284	-0.000452409	0
3890.75	0.00898467	-0.000439493	0
3900.75	0.00900376	-0.000451327	0
3910.75	0.00904193	-0.000531432	0
3920.75	0.00906102	-0.000455972	0
3930.75	0.0090992	-0.000457562	0
3940.75	0.00911828	-0.00044611	0
3950.75	0.00906102	-0.000445919	0
3960.75	0.00896558	-0.00041856	0
3961.29	0.00896558	-0.000385666	0
3961.29	0.00913737	-0.000395019	0