File: EXPERIMENTAL/DATA/Electrochemical-cycling/2024-06-14_S02_Icell_t0060_C0500_J01_deltaX-110,0mm_04_CP_C06.txt
time/s	Ewe/V	I/mA	error
120.206	0.0127631	-0.194771	0
120.206	0.00763091	-0.19598	0
120.206	0.00539875	-0.195978	0
120.206	0.00413869	-0.195988	0
120.207	0.00240133	-0.195982	0
120.207	0.000797606	-0.195985	0
120.208	-0.000424275	-0.195981	0
120.208	-0.00183708	-0.195979	0
120.208	-0.00307805	-0.19598	0
120.209	-0.00426175	-0.195983	0
120.209	-0.0053118	-0.195984	0
120.21	-0.00643822	-0.195983	0
120.21	-0.00760283	-0.195982	0
120.211	-0.00913018	-0.195982	0
120.211	-0.010142	-0.195987	0
120.212	-0.0116694	-0.195985	0
120.212	-0.0132349	-0.19598	0
120.213	-0.0146096	-0.195985	0
120.213	-0.0159842	-0.195985	0
120.214	-0.0173206	-0.195984	0
120.214	-0.0183325	-0.195982	0
120.215	-0.0197644	-0.195982	0
120.216	-0.0207762	-0.195977	0
120.216	-0.0221318	-0.195984	0
120.217	-0.0234682	-0.195988	0
120.217	-0.024671	-0.195979	0
120.218	-0.0258738	-0.195976	0
120.219	-0.0271338	-0.195983	0
120.219	-0.0282603	-0.195983	0
120.22	-0.0293103	-0.195983	0
120.22	-0.0306086	-0.195986	0
120.221	-0.0317732	-0.195982	0
120.222	-0.0331287	-0.19598	0
120.222	-0.0343124	-0.195984	0
120.223	-0.0357634	-0.195978	0
120.224	-0.0370807	-0.195981	0
120.225	-0.0382453	-0.195985	0
120.225	-0.0393908	-0.195979	0
120.226	-0.0405554	-0.195982	0
120.227	-0.0417582	-0.195977	0
120.227	-0.0429228	-0.195981	0
120.228	-0.0439729	-0.195982	0
120.229	-0.0452139	-0.195978	0
120.23	-0.0465121	-0.195985	0
120.23	-0.0477913	-0.195985	0
120.231	-0.0489941	-0.195981	0
120.232	-0.0503305	-0.195983	0
120.233	-0.0515906	-0.195989	0
120.234	-0.052717	-0.195979	0
120.234	-0.0537861	-0.195975	0
120.235	-0.0549507	-0.19598	0
120.236	-0.0561344	-0.19598	0
120.237	-0.0572608	-0.195981	0
120.238	-0.0583491	-0.195983	0
120.239	-0.0596092	-0.195984	0
120.239	-0.0607928	-0.195987	0
120.24	-0.0620911	-0.195984	0
120.241	-0.0631984	-0.195985	0
120.242	-0.0642485	-0.195982	0
120.243	-0.0652985	-0.195982	0
120.244	-0.0663104	-0.195983	0
120.245	-0.0673986	-0.195979	0
120.246	-0.0685251	-0.195983	0
120.247	-0.069766	-0.195982	0
120.248	-0.0708161	-0.195978	0
120.249	-0.0719425	-0.195978	0
120.25	-0.0732026	-0.195984	0
120.251	-0.0742335	-0.195984	0
120.252	-0.0753409	-0.19598	0
120.253	-0.0763527	-0.19598	0
120.254	-0.0775555	-0.195978	0
120.255	-0.0786056	-0.195981	0
120.256	-0.0796938	-0.195983	0
120.257	-0.0808393	-0.195978	0
120.258	-0.0820803	-0.195978	0
120.259	-0.0831686	-0.195975	0
120.261	-0.0843713	-0.195976	0
120.262	-0.0856505	-0.195983	0
120.263	-0.0867578	-0.195979	0
120.265	-0.0879606	-0.195981	0
120.266	-0.0892016	-0.195983	0
120.267	-0.0902707	-0.195979	0
120.269	-0.0914162	-0.195982	0
120.27	-0.0925618	-0.195986	0
120.272	-0.0936882	-0.195984	0
120.273	-0.0947764	-0.195976	0
120.274	-0.0958456	-0.195984	0
120.276	-0.0968574	-0.195982	0
120.277	-0.098003	-0.195983	0
120.279	-0.0990339	-0.19599	0
120.28	-0.100084	-0.19598	0
120.282	-0.101134	-0.195982	0
120.284	-0.102146	-0.195984	0
120.285	-0.103272	-0.195982	0
120.287	-0.104418	-0.195982	0
120.289	-0.105544	-0.195985	0
120.291	-0.106652	-0.195982	0
120.293	-0.107702	-0.19598	0
120.295	-0.108771	-0.195986	0
120.297	-0.109859	-0.195981	0
120.299	-0.111005	-0.195983	0
120.301	-0.112226	-0.195982	0
120.304	-0.113296	-0.195984	0
120.306	-0.114307	-0.195981	0
120.308	-0.115377	-0.195986	0
120.311	-0.116503	-0.195978	0
120.314	-0.117534	-0.195983	0
120.316	-0.11866	-0.19598	0
120.318	-0.11971	-0.195981	0
120.322	-0.120875	-0.195977	0
120.324	-0.121887	-0.19598	0
120.328	-0.122937	-0.195981	0
120.331	-0.124082	-0.195979	0
120.334	-0.125171	-0.19598	0
120.338	-0.126202	-0.195987	0
120.341	-0.127252	-0.195982	0
120.345	-0.128378	-0.195984	0
120.349	-0.129581	-0.195978	0
120.354	-0.130707	-0.195981	0
120.358	-0.131719	-0.195984	0
120.362	-0.13275	-0.195985	0
120.367	-0.133781	-0.195983	0
120.372	-0.134793	-0.195983	0
120.377	-0.135824	-0.195984	0
120.383	-0.136874	-0.19598	0
120.39	-0.13802	-0.195983	0
120.397	-0.139031	-0.195983	0
120.405	-0.140139	-0.195986	0
120.415	-0.141208	-0.195985	0
120.426	-0.142239	-0.195976	0
120.44	-0.14327	-0.195979	0
120.464	-0.144301	-0.195986	0
120.516	-0.143232	-0.195982	0
120.534	-0.14222	-0.195979	0
120.548	-0.141189	-0.195981	0
120.561	-0.140158	-0.195979	0
120.572	-0.139127	-0.195981	0
120.582	-0.138096	-0.19599	0
120.592	-0.137084	-0.195987	0
120.602	-0.136034	-0.195987	0
120.613	-0.135003	-0.195989	0
120.622	-0.133896	-0.195983	0
120.633	-0.132846	-0.195981	0
120.643	-0.131834	-0.195985	0
120.652	-0.130822	-0.195985	0
120.662	-0.12981	-0.195981	0
120.671	-0.128798	-0.195984	0
120.682	-0.127767	-0.195981	0
120.692	-0.126755	-0.195984	0
120.703	-0.125743	-0.195984	0
120.713	-0.124732	-0.195987	0
120.726	-0.123682	-0.195976	0
120.737	-0.12267	-0.195982	0
120.749	-0.121639	-0.195982	0
120.763	-0.120608	-0.195984	0
120.777	-0.119558	-0.195985	0
120.792	-0.118546	-0.195982	0
120.808	-0.117496	-0.195985	0
120.825	-0.116465	-0.195987	0
120.844	-0.115357	-0.195973	0
120.864	-0.114346	-0.195978	0
120.886	-0.113334	-0.195982	0
120.907	-0.112303	-0.195987	0
120.933	-0.111291	-0.195985	0
120.96	-0.110279	-0.195986	0
120.991	-0.10921	-0.195988	0
121.027	-0.108103	-0.195983	0
121.069	-0.106995	-0.195978	0
121.119	-0.105983	-0.195987	0
121.168	-0.104933	-0.195978	0
121.229	-0.103921	-0.195982	0
121.29	-0.10291	-0.195978	0
121.379	-0.10184	-0.195985	0
121.482	-0.100829	-0.195981	0
121.611	-0.0998167	-0.195978	0
121.772	-0.0987475	-0.195978	0
121.999	-0.0977166	-0.195987	0
122.299	-0.0967047	-0.195984	0
122.807	-0.0956356	-0.195981	0
123.959	-0.0945855	-0.195982	0
130.683	-0.0955974	-0.195986	0
135.79	-0.0966474	-0.195985	0
142.725	-0.0976975	-0.195986	0
152.725	-0.0984612	-0.195987	0
162.725	-0.0987094	-0.195984	0
172.725	-0.0988048	-0.195983	0
182.725	-0.0987666	-0.195987	0
192.725	-0.0987284	-0.195986	0
202.725	-0.0984993	-0.19598	0
212.725	-0.0982893	-0.195986	0
222.725	-0.098003	-0.195981	0
232.725	-0.0975638	-0.195989	0
242.725	-0.0971629	-0.19599	0
252.725	-0.0968574	-0.195987	0
262.725	-0.096361	-0.195989	0
272.725	-0.0958838	-0.195985	0
282.725	-0.0955974	-0.195988	0
292.725	-0.0951392	-0.195988	0
302.725	-0.0948337	-0.195988	0
312.725	-0.094471	-0.195984	0
322.725	-0.0939173	-0.195983	0
332.725	-0.0935545	-0.195986	0
342.725	-0.0930582	-0.195985	0
352.725	-0.0927909	-0.195982	0
362.725	-0.0924472	-0.195988	0
372.725	-0.091989	-0.195984	0
382.725	-0.0916835	-0.195984	0
392.725	-0.0912635	-0.195985	0
402.725	-0.0910344	-0.195987	0
412.725	-0.090748	-0.195983	0
422.725	-0.0902898	-0.195992	0
432.725	-0.0898698	-0.195993	0
442.725	-0.0895643	-0.195983	0
452.725	-0.0893352	-0.195987	0
462.725	-0.0892589	-0.195992	0
472.725	-0.0887052	-0.195985	0
482.725	-0.0886097	-0.195985	0
492.725	-0.0882661	-0.195989	0
502.725	-0.0880561	-0.195986	0
512.725	-0.0876933	-0.195991	0
522.725	-0.0875024	-0.195985	0
532.725	-0.0873497	-0.195985	0
542.725	-0.0871206	-0.195987	0
552.725	-0.0870251	-0.19599	0
562.725	-0.0866624	-0.195989	0
572.725	-0.086376	-0.195988	0
582.725	-0.086166	-0.195988	0
592.725	-0.0861469	-0.195989	0
602.725	-0.0858414	-0.19598	0
612.725	-0.085765	-0.195987	0
622.725	-0.0854405	-0.195986	0
632.725	-0.0853068	-0.195984	0
642.725	-0.0851923	-0.19599	0
652.725	-0.0849059	-0.195992	0
662.725	-0.0847341	-0.195981	0
672.725	-0.0846195	-0.195985	0
682.725	-0.084505	-0.195994	0
692.725	-0.0842568	-0.195985	0
702.725	-0.0841422	-0.19598	0
712.725	-0.0841613	-0.195983	0
722.725	-0.0839704	-0.195985	0
732.725	-0.0837795	-0.19598	0
742.725	-0.0837222	-0.195989	0
752.725	-0.0835313	-0.195989	0
762.725	-0.0833022	-0.195986	0
772.725	-0.0832831	-0.195989	0
782.725	-0.083054	-0.195989	0
792.725	-0.0829967	-0.195987	0
802.725	-0.0829204	-0.195989	0
812.725	-0.0827294	-0.195989	0
822.725	-0.0825958	-0.195987	0
832.725	-0.0824621	-0.195985	0
842.725	-0.0823476	-0.195986	0
852.725	-0.082214	-0.195982	0
862.725	-0.0820612	-0.195987	0
872.725	-0.0819849	-0.195985	0
882.725	-0.0819276	-0.195986	0
892.725	-0.081813	-0.195987	0
902.725	-0.0817558	-0.195992	0
912.725	-0.0816603	-0.195987	0
922.725	-0.081603	-0.195989	0
932.725	-0.0814694	-0.195985	0
942.725	-0.0812594	-0.19599	0
952.725	-0.0812594	-0.195986	0
962.725	-0.0812021	-0.195985	0
972.725	-0.0809539	-0.195987	0
982.725	-0.0807821	-0.195989	0
992.725	-0.0808775	-0.195987	0
1002.73	-0.0807057	-0.195981	0
1012.73	-0.0806484	-0.195996	0
1022.73	-0.0804384	-0.195985	0
1032.73	-0.0804575	-0.195985	0
1042.73	-0.0803048	-0.195988	0
1052.73	-0.0802666	-0.195983	0
1062.73	-0.0801711	-0.195988	0
1072.73	-0.0800948	-0.19599	0
1082.73	-0.0799038	-0.195985	0
1092.73	-0.0799611	-0.195983	0
1102.73	-0.0798656	-0.19599	0
1112.73	-0.0797129	-0.195988	0
1122.73	-0.0796938	-0.195995	0
1132.73	-0.0796938	-0.195986	0
1142.73	-0.0794838	-0.195988	0
1152.73	-0.0793693	-0.195987	0
1162.73	-0.0794838	-0.195984	0
1172.73	-0.0791593	-0.195989	0
1182.73	-0.0792929	-0.195982	0
1192.73	-0.0790638	-0.195983	0
1202.73	-0.0790829	-0.195987	0
1212.73	-0.0789301	-0.195985	0
1222.73	-0.0789492	-0.195987	0
1232.73	-0.0787774	-0.195985	0
1242.73	-0.0786629	-0.195985	0
1252.73	-0.0788156	-0.195987	0
1262.73	-0.0786247	-0.195994	0
1272.73	-0.078491	-0.195987	0
1282.73	-0.0784719	-0.195985	0
1292.73	-0.0783574	-0.195991	0
1302.73	-0.0783956	-0.195982	0
1312.73	-0.0782619	-0.195986	0
1322.73	-0.0782428	-0.195983	0
1332.73	-0.0781665	-0.195983	0
1342.73	-0.078071	-0.195991	0
1352.73	-0.0780328	-0.195987	0
1362.73	-0.0778419	-0.195986	0
1372.73	-0.0778801	-0.19599	0
1382.73	-0.0778228	-0.195987	0
1392.73	-0.0777655	-0.195989	0
1402.73	-0.0777655	-0.195982	0
1412.73	-0.0776319	-0.195988	0
1422.73	-0.0776128	-0.19599	0
1432.73	-0.0776319	-0.195989	0
1442.73	-0.0774601	-0.195988	0
1452.73	-0.0774792	-0.195989	0
1462.73	-0.0774028	-0.195985	0
1472.73	-0.0773073	-0.195992	0
1482.73	-0.0772119	-0.19599	0
1492.73	-0.077231	-0.195982	0
1502.73	-0.077231	-0.195988	0
1512.73	-0.077021	-0.195989	0
1522.73	-0.0770401	-0.195988	0
1532.73	-0.077021	-0.195986	0
1542.73	-0.0768491	-0.195994	0
1552.73	-0.0767728	-0.19599	0
1562.73	-0.0766964	-0.195987	0
1572.73	-0.0767728	-0.195987	0
1582.73	-0.0767537	-0.195988	0
1592.73	-0.0766009	-0.195985	0
1602.73	-0.0766009	-0.195987	0
1612.73	-0.0766773	-0.19599	0
1622.73	-0.0764864	-0.195987	0
1632.73	-0.0765055	-0.195987	0
1642.73	-0.0764482	-0.195985	0
1652.73	-0.0763909	-0.195989	0
1662.73	-0.0763146	-0.195995	0
1672.73	-0.0762955	-0.195991	0
1682.73	-0.0761618	-0.195989	0
1692.73	-0.0761618	-0.195984	0
1702.73	-0.0761618	-0.195985	0
1712.73	-0.0760855	-0.195988	0
1722.73	-0.0760473	-0.195984	0
1732.73	-0.0759518	-0.195988	0
1742.73	-0.0759327	-0.195985	0
1752.73	-0.0758754	-0.19599	0
1762.73	-0.0758373	-0.195988	0
1772.73	-0.0758182	-0.195992	0
1782.73	-0.0757609	-0.195985	0
1792.73	-0.0757227	-0.195989	0
1802.73	-0.0757609	-0.195985	0
1812.73	-0.0756082	-0.195987	0
1822.73	-0.0755891	-0.195989	0
1832.73	-0.0755318	-0.195987	0
1842.73	-0.0753027	-0.195985	0
1852.73	-0.07536	-0.19599	0
1862.73	-0.0753218	-0.195985	0
1872.73	-0.0753218	-0.195987	0
1882.73	-0.0752836	-0.195988	0
1892.73	-0.0752836	-0.19599	0
1902.73	-0.0752645	-0.195987	0
1912.73	-0.0751309	-0.195989	0
1920.21	-0.07515	-0.195987	0