File: EXPERIMENTAL/DATA/Electrochemical-cycling/2024-06-14_S05_TPcell_t1800_C0500_J01_only-2-electrodes_04_CP_C09.txt
time/s	Ewe/V	I/mA	error
1860.21	0.00225088	-0.194651	0
1860.21	-0.00255905	-0.195979	0
1860.21	-0.00543122	-0.195984	0
1860.21	-0.00653826	-0.195975	0
1860.21	-0.00802703	-0.195982	0
1860.21	-0.00957307	-0.195985	0
1860.21	-0.0109664	-0.195984	0
1860.21	-0.012417	-0.195982	0
1860.21	-0.0136767	-0.195985	0
1860.21	-0.0149365	-0.195983	0
1860.21	-0.0160053	-0.195978	0
1860.21	-0.0172078	-0.195986	0
1860.21	-0.0182576	-0.195984	0
1860.21	-0.019441	-0.195978	0
1860.21	-0.0205862	-0.195979	0
1860.21	-0.0222277	-0.195985	0
1860.21	-0.0232393	-0.195982	0
1860.21	-0.0246517	-0.19598	0
1860.21	-0.0261405	-0.195982	0
1860.21	-0.0272857	-0.195984	0
1860.21	-0.0285836	-0.195985	0
1860.21	-0.0295952	-0.195985	0
1860.21	-0.0310458	-0.195983	0
1860.22	-0.0322673	-0.195988	0
1860.22	-0.033298	-0.195987	0
1860.22	-0.0345387	-0.195983	0
1860.22	-0.0360656	-0.195983	0
1860.22	-0.0373063	-0.195978	0
1860.22	-0.0384897	-0.195984	0
1860.22	-0.0397303	-0.195982	0
1860.22	-0.0410473	-0.195982	0
1860.22	-0.0422116	-0.195985	0
1860.22	-0.0434713	-0.19598	0
1860.22	-0.0445974	-0.19598	0
1860.22	-0.0458381	-0.195984	0
1860.22	-0.0470024	-0.195978	0
1860.22	-0.0481476	-0.195982	0
1860.22	-0.0491974	-0.195985	0
1860.22	-0.0503808	-0.195985	0
1860.23	-0.0516978	-0.195978	0
1860.23	-0.0529002	-0.195982	0
1860.23	-0.0540454	-0.195986	0
1860.23	-0.0554197	-0.195984	0
1860.23	-0.0564695	-0.195987	0
1860.23	-0.0575956	-0.19598	0
1860.23	-0.0586454	-0.195984	0
1860.23	-0.0599624	-0.195982	0
1860.23	-0.0610694	-0.195987	0
1860.23	-0.0623864	-0.195987	0
1860.23	-0.063398	-0.195984	0
1860.23	-0.0646386	-0.195982	0
1860.23	-0.0659938	-0.195978	0
1860.23	-0.0673871	-0.195984	0
1860.23	-0.0684751	-0.195985	0
1860.24	-0.0696394	-0.195985	0
1860.24	-0.0708991	-0.195985	0
1860.24	-0.072197	-0.195984	0
1860.24	-0.0734759	-0.195982	0
1860.24	-0.0745447	-0.195988	0
1860.24	-0.0758235	-0.195984	0
1860.24	-0.0769688	-0.195985	0
1860.24	-0.078114	-0.195986	0
1860.24	-0.0791256	-0.195977	0
1860.24	-0.080309	-0.195982	0
1860.24	-0.0814732	-0.195979	0
1860.24	-0.0825803	-0.19598	0
1860.25	-0.0836492	-0.195982	0
1860.25	-0.0846989	-0.19598	0
1860.25	-0.0858823	-0.195982	0
1860.25	-0.0872184	-0.195981	0
1860.25	-0.0884018	-0.195983	0
1860.25	-0.0894325	-0.19598	0
1860.25	-0.0905013	-0.195983	0
1860.25	-0.0918947	-0.195986	0
1860.25	-0.0930971	-0.195978	0
1860.25	-0.0942233	-0.195984	0
1860.25	-0.095273	-0.19598	0
1860.26	-0.0963037	-0.195984	0
1860.26	-0.097468	-0.19598	0
1860.26	-0.0986896	-0.195982	0
1860.26	-0.0997775	-0.195986	0
1860.26	-0.100923	-0.195983	0
1860.26	-0.102163	-0.19598	0
1860.26	-0.10327	-0.19598	0
1860.26	-0.104587	-0.195987	0
1860.26	-0.105771	-0.195983	0
1860.26	-0.106916	-0.19598	0
1860.27	-0.107947	-0.19598	0
1860.27	-0.109054	-0.195984	0
1860.27	-0.110161	-0.195987	0
1860.27	-0.111306	-0.195983	0
1860.27	-0.11247	-0.195982	0
1860.27	-0.113673	-0.195978	0
1860.27	-0.114818	-0.195985	0
1860.27	-0.116078	-0.195982	0
1860.27	-0.117242	-0.195982	0
1860.28	-0.118521	-0.195988	0
1860.28	-0.119647	-0.195987	0
1860.28	-0.120735	-0.195983	0
1860.28	-0.121823	-0.195984	0
1860.28	-0.123006	-0.195982	0
1860.28	-0.124228	-0.195976	0
1860.28	-0.125411	-0.195983	0
1860.28	-0.126499	-0.195984	0
1860.29	-0.127549	-0.19598	0
1860.29	-0.128561	-0.195987	0
1860.29	-0.129648	-0.195985	0
1860.29	-0.130679	-0.195985	0
1860.29	-0.131824	-0.195978	0
1860.29	-0.133027	-0.195985	0
1860.29	-0.134058	-0.195987	0
1860.3	-0.135088	-0.195981	0
1860.3	-0.136157	-0.195983	0
1860.3	-0.137207	-0.195977	0
1860.3	-0.138333	-0.195985	0
1860.3	-0.139478	-0.195981	0
1860.3	-0.140585	-0.195989	0
1860.3	-0.141654	-0.195983	0
1860.31	-0.142723	-0.195983	0
1860.31	-0.143754	-0.195991	0
1860.31	-0.144765	-0.195981	0
1860.31	-0.145796	-0.195986	0
1860.31	-0.146846	-0.195984	0
1860.31	-0.147934	-0.195989	0
1860.32	-0.149003	-0.195984	0
1860.32	-0.150205	-0.195986	0
1860.32	-0.151331	-0.195985	0
1860.32	-0.152495	-0.19599	0
1860.32	-0.153526	-0.195984	0
1860.32	-0.154729	-0.195983	0
1860.33	-0.155988	-0.195985	0
1860.33	-0.157134	-0.195988	0
1860.33	-0.158164	-0.195982	0
1860.33	-0.159252	-0.195987	0
1860.34	-0.160264	-0.195983	0
1860.34	-0.161275	-0.195982	0
1860.34	-0.162344	-0.195982	0
1860.34	-0.163375	-0.195982	0
1860.34	-0.164463	-0.195989	0
1860.35	-0.165742	-0.195987	0
1860.35	-0.166753	-0.195987	0
1860.35	-0.167765	-0.195984	0
1860.36	-0.168777	-0.195982	0
1860.36	-0.169788	-0.195987	0
1860.36	-0.170914	-0.195987	0
1860.36	-0.171983	-0.195986	0
1860.37	-0.173071	-0.195983	0
1860.37	-0.174159	-0.195985	0
1860.38	-0.175171	-0.195985	0
1860.38	-0.176239	-0.195986	0
1860.39	-0.177251	-0.195981	0
1860.39	-0.178358	-0.195986	0
1860.43	-0.177327	-0.19598	0
1860.44	-0.176297	-0.195978	0
1860.45	-0.175266	-0.195978	0
1860.45	-0.174254	-0.195984	0
1860.46	-0.173147	-0.19598	0
1860.46	-0.172002	-0.19598	0
1860.47	-0.170952	-0.195982	0
1860.47	-0.169941	-0.195984	0
1860.47	-0.168891	-0.195983	0
1860.48	-0.167879	-0.195985	0
1860.48	-0.166868	-0.195984	0
1860.48	-0.165837	-0.195983	0
1860.49	-0.164826	-0.195984	0
1860.49	-0.163795	-0.195983	0
1860.49	-0.162726	-0.195979	0
1860.5	-0.161695	-0.195983	0
1860.5	-0.160493	-0.195985	0
1860.51	-0.159462	-0.195978	0
1860.51	-0.158451	-0.195985	0
1860.51	-0.157363	-0.19599	0
1860.52	-0.156351	-0.19598	0
1860.52	-0.155339	-0.195987	0
1860.52	-0.15429	-0.195973	0
1860.53	-0.15324	-0.195982	0
1860.53	-0.15219	-0.195987	0
1860.53	-0.151102	-0.195983	0
1860.54	-0.150071	-0.195977	0
1860.54	-0.148983	-0.195984	0
1860.55	-0.147934	-0.195985	0
1860.55	-0.146846	-0.195992	0
1860.55	-0.145777	-0.19598	0
1860.56	-0.144765	-0.19598	0
1860.56	-0.143735	-0.195981	0
1860.57	-0.142723	-0.195985	0
1860.57	-0.141654	-0.195985	0
1860.58	-0.140642	-0.195986	0
1860.58	-0.139593	-0.195985	0
1860.59	-0.138486	-0.195984	0
1860.59	-0.137417	-0.195988	0
1860.6	-0.136291	-0.195989	0
1860.6	-0.135241	-0.195984	0
1860.61	-0.134229	-0.195979	0
1860.61	-0.133027	-0.195983	0
1860.62	-0.132015	-0.195984	0
1860.63	-0.131004	-0.19598	0
1860.63	-0.129973	-0.195981	0
1860.64	-0.128885	-0.195984	0
1860.65	-0.127873	-0.195984	0
1860.66	-0.126862	-0.195987	0
1860.66	-0.125774	-0.195987	0
1860.67	-0.124724	-0.195982	0
1860.68	-0.123674	-0.195981	0
1860.69	-0.122529	-0.195984	0
1860.7	-0.121365	-0.195983	0
1860.71	-0.120315	-0.195987	0
1860.73	-0.119227	-0.195983	0
1860.74	-0.118158	-0.195991	0
1860.75	-0.117127	-0.195989	0
1860.77	-0.116078	-0.195984	0
1860.78	-0.115047	-0.195982	0
1860.8	-0.113959	-0.195987	0
1860.82	-0.11289	-0.195985	0
1860.84	-0.111783	-0.195982	0
1860.86	-0.110714	-0.195982	0
1860.89	-0.109703	-0.195985	0
1860.92	-0.108672	-0.195985	0
1860.95	-0.10766	-0.195982	0
1860.99	-0.10663	-0.195985	0
1861.03	-0.105599	-0.195988	0
1861.07	-0.104568	-0.19598	0
1861.12	-0.103557	-0.195987	0
1861.19	-0.10245	-0.195982	0
1861.27	-0.101438	-0.195983	0
1861.35	-0.100388	-0.195985	0
1861.47	-0.0993385	-0.195982	0
1861.61	-0.0983079	-0.195983	0
1861.79	-0.0972772	-0.195988	0
1862.05	-0.0962656	-0.195987	0
1862.43	-0.0952158	-0.195991	0
1863.14	-0.094166	-0.195985	0
1871.6	-0.0951776	-0.195987	0
1876.4	-0.0962083	-0.195989	0
1882.83	-0.0972199	-0.195989	0
1892.83	-0.0978116	-0.195988	0
1902.83	-0.0981933	-0.195982	0
1912.83	-0.0983079	-0.195982	0
1922.83	-0.098117	-0.195986	0
1932.83	-0.0979261	-0.195989	0
1942.83	-0.0974871	-0.195987	0
1952.83	-0.0970481	-0.195984	0
1962.83	-0.0966664	-0.195989	0
1972.83	-0.096151	-0.195985	0
1982.83	-0.095693	-0.195989	0
1992.83	-0.0951203	-0.195985	0
2002.83	-0.0946432	-0.195986	0
2012.83	-0.0943378	-0.19599	0
2022.83	-0.0937461	-0.195992	0
2032.83	-0.0933644	-0.195986	0
2042.83	-0.0928108	-0.195983	0
2052.83	-0.0924673	-0.195987	0
2062.83	-0.0920283	-0.195989	0
2072.83	-0.0916084	-0.195989	0
2082.83	-0.0911885	-0.195991	0
2092.83	-0.090864	-0.195985	0
2102.83	-0.0903868	-0.195983	0
2112.83	-0.0899669	-0.19599	0
2122.83	-0.0897188	-0.195989	0
2132.83	-0.0893561	-0.195983	0
2142.83	-0.0890698	-0.195985	0
2152.83	-0.0886881	-0.195987	0
2162.83	-0.0884209	-0.195992	0
2172.83	-0.0881536	-0.195991	0
2182.83	-0.0878864	-0.195985	0
2192.83	-0.0876192	-0.195992	0
2202.83	-0.0872375	-0.195991	0
2212.83	-0.0870466	-0.195985	0
2222.83	-0.0868748	-0.195988	0
2232.83	-0.0865694	-0.195985	0
2242.83	-0.0863977	-0.195984	0
2252.83	-0.0862068	-0.195987	0
2262.83	-0.0859396	-0.195989	0
2272.83	-0.0857487	-0.195986	0
2282.83	-0.0855388	-0.195985	0
2292.83	-0.0853288	-0.195986	0
2302.83	-0.0850616	-0.195987	0
2312.83	-0.0849661	-0.195986	0
2322.83	-0.0847753	-0.19599	0
2332.83	-0.0845844	-0.195987	0
2342.83	-0.0843935	-0.195981	0
2352.83	-0.0842218	-0.195985	0
2362.83	-0.0841454	-0.195982	0
2372.83	-0.0838973	-0.195987	0
2382.83	-0.0837828	-0.195989	0
2392.83	-0.0837064	-0.195989	0
2402.83	-0.0835728	-0.195989	0
2412.83	-0.0834201	-0.195988	0
2422.83	-0.0832292	-0.195987	0
2432.83	-0.0830765	-0.195991	0
2442.83	-0.0829239	-0.195984	0
2452.83	-0.0827902	-0.19598	0
2462.83	-0.0826185	-0.195986	0
2472.83	-0.0825612	-0.195984	0
2482.83	-0.0823322	-0.195987	0
2492.83	-0.0822749	-0.195985	0
2502.83	-0.0821031	-0.195984	0
2512.83	-0.0821413	-0.195986	0
2522.83	-0.0819695	-0.195987	0
2532.83	-0.0818932	-0.195995	0
2542.83	-0.0817023	-0.195996	0
2552.83	-0.0816832	-0.195987	0
2562.83	-0.0814542	-0.195988	0
2572.83	-0.0814923	-0.19599	0
2582.83	-0.0813206	-0.195989	0
2592.83	-0.0812251	-0.195987	0
2602.83	-0.0812251	-0.195989	0
2612.83	-0.0810724	-0.195982	0
2622.83	-0.0809961	-0.195981	0
2632.83	-0.0808816	-0.195989	0
2642.83	-0.0808052	-0.195986	0
2652.83	-0.0807479	-0.195992	0
2662.83	-0.0805762	-0.195988	0
2672.83	-0.0804807	-0.195979	0
2682.83	-0.0803471	-0.195991	0
2692.83	-0.0803853	-0.195987	0
2702.83	-0.0802326	-0.195987	0
2712.83	-0.0800608	-0.195984	0
2722.83	-0.0799463	-0.195983	0
2732.83	-0.0800036	-0.195987	0
2742.83	-0.0800036	-0.195988	0
2752.83	-0.0799845	-0.195987	0
2762.83	-0.0799272	-0.195984	0
2772.83	-0.07987	-0.195991	0
2782.83	-0.0796409	-0.195988	0
2792.83	-0.0795837	-0.195989	0
2802.83	-0.0795837	-0.195984	0
2812.83	-0.0795837	-0.195991	0
2822.83	-0.0795073	-0.195991	0
2832.83	-0.0793164	-0.195989	0
2842.83	-0.0793355	-0.195983	0
2852.83	-0.0791828	-0.195983	0
2862.83	-0.079221	-0.195989	0
2872.83	-0.079011	-0.195988	0
2882.83	-0.0788965	-0.195986	0
2892.83	-0.0788774	-0.195991	0
2902.83	-0.078992	-0.19599	0
2912.83	-0.0788202	-0.195985	0
2922.83	-0.0786866	-0.195984	0
2932.83	-0.0787438	-0.195989	0
2942.83	-0.0785148	-0.195989	0
2952.83	-0.0786675	-0.195985	0
2962.83	-0.0785911	-0.195985	0
2972.83	-0.0784957	-0.195991	0
2982.83	-0.0784384	-0.195985	0
2992.83	-0.0784003	-0.195989	0
3002.83	-0.0783812	-0.195989	0
3012.83	-0.0783239	-0.195984	0
3022.83	-0.0783239	-0.195983	0
3032.83	-0.0783048	-0.195989	0
3042.83	-0.0781521	-0.195986	0
3052.83	-0.0780949	-0.195991	0
3062.83	-0.0780949	-0.195989	0
3072.83	-0.0780949	-0.195984	0
3082.83	-0.0779804	-0.195982	0
3092.83	-0.077904	-0.195992	0
3102.83	-0.0779422	-0.195994	0
3112.83	-0.0778467	-0.19598	0
3122.83	-0.0777322	-0.195983	0
3132.83	-0.0778086	-0.195985	0
3142.83	-0.0777704	-0.195987	0
3152.83	-0.0776941	-0.195982	0
3162.83	-0.0776941	-0.195986	0
3172.83	-0.0775604	-0.195988	0
3182.83	-0.0775032	-0.195985	0
3192.83	-0.0774268	-0.195985	0
3202.83	-0.0776177	-0.195985	0
3212.83	-0.0774268	-0.195991	0
3222.83	-0.0773696	-0.195987	0
3232.83	-0.0774268	-0.195986	0
3242.83	-0.0773123	-0.195986	0
3252.83	-0.077236	-0.195991	0
3262.83	-0.0772741	-0.195992	0
3272.83	-0.0772741	-0.195989	0
3282.83	-0.0771405	-0.195991	0
3292.83	-0.0771596	-0.195987	0
3302.83	-0.0771214	-0.195985	0
3312.83	-0.0771596	-0.19599	0
3322.83	-0.0770451	-0.19599	0
3332.83	-0.0771024	-0.195985	0
3342.83	-0.0770069	-0.19599	0
3352.83	-0.0769115	-0.195992	0
3362.83	-0.0769497	-0.195991	0
3372.83	-0.0768351	-0.19599	0
3382.83	-0.0768542	-0.195985	0
3392.83	-0.0768161	-0.195985	0
3402.83	-0.0767779	-0.195984	0
3412.83	-0.0768161	-0.195987	0
3422.83	-0.0768733	-0.195988	0
3432.83	-0.0767397	-0.195993	0
3442.83	-0.0766252	-0.19598	0
3452.83	-0.0765488	-0.195991	0
3462.83	-0.0766634	-0.195984	0
3472.83	-0.0767015	-0.195987	0
3482.83	-0.0764916	-0.195984	0
3492.83	-0.0766061	-0.195982	0
3502.83	-0.0764534	-0.195981	0
3512.83	-0.0764725	-0.195987	0
3522.83	-0.0764343	-0.195985	0
3532.83	-0.0764916	-0.195989	0
3542.83	-0.0764152	-0.195985	0
3552.83	-0.0766061	-0.19599	0
3562.83	-0.0764534	-0.19599	0
3572.83	-0.0763007	-0.195983	0
3582.83	-0.0763771	-0.195982	0
3592.83	-0.0763961	-0.195991	0
3602.83	-0.0763007	-0.195982	0
3612.83	-0.0762625	-0.195989	0
3622.83	-0.0762435	-0.195987	0
3632.83	-0.0761671	-0.195989	0
3642.83	-0.0762625	-0.195991	0
3652.83	-0.0762053	-0.195982	0
3660.21	-0.0761671	-0.195978	0