File: EXPERIMENTAL/DATA/Electrochemical-cycling/S-series/2024-07-02_S20_Icell_t1800_C0010_J01_deltaX-110,2mm_plating-stripping_02_MB_C02.txt
time/s	Ewe/V	I/mA	error
60.053	2.5706	-0.0250311	0	0
60.1432	0.00923652	-8.62881	0	0
60.1436	0.00919835	-8.53814	0	0
60.144	0.00923652	-8.44811	0	0
60.1444	0.00916017	-8.35891	0	0
60.1448	0.00923652	-8.27162	0	0
60.1452	0.00923652	-8.18687	0	0
60.1456	0.00917926	-8.10397	0	0
60.146	0.00923652	-8.02138	0	0
60.1464	0.00919835	-7.94052	0	0
60.1468	0.00925561	-7.86175	0	0
60.1472	0.00923652	-7.78406	0	0
60.1476	0.00929379	-7.70676	0	0
60.148	0.00921743	-7.63206	0	0
60.1484	0.00919835	-7.5587	0	0
60.1488	0.0092747	-7.48452	0	0
60.1492	0.00923652	-7.4144	0	0
60.1496	0.00931287	-7.34423	0	0
60.15	0.0092747	-7.275	0	0
60.1504	0.00925561	-7.20731	0	0
60.1508	0.00925561	-7.14082	0	0
60.1512	0.00916017	-7.07541	0	0
60.1516	0.00929379	-7.01007	0	0
60.152	0.0092747	-6.946	0	0
60.1524	0.00923652	-6.88371	0	0
60.1528	0.0092747	-6.82193	0	0
60.1532	0.00921743	-6.76168	0	0
60.1536	0.00923652	-6.70155	0	0
60.154	0.00923652	-6.64245	0	0
60.1544	0.00929379	-6.58429	0	0
60.1548	0.00929379	-6.52761	0	0
60.1552	0.00919835	-6.47168	0	0
60.1556	0.00923652	-6.41582	0	0
60.156	0.00919835	-6.36072	0	0
60.1564	0.00921743	-6.30683	0	0
60.1568	0.00914108	-6.25408	0	0
60.1572	0.00933196	-6.20134	0	0
60.1576	0.00921743	-6.15018	0	0
60.158	0.00925561	-6.09897	0	0
60.1586	0.00929379	-6.02402	0	0
60.1592	0.00925561	-5.95136	0	0
60.1598	0.00925561	-5.8794	0	0
60.1604	0.00929379	-5.80897	0	0
60.161	0.00917926	-5.74032	0	0
60.1616	0.00921743	-5.673	0	0
60.1622	0.00921743	-5.60728	0	0
60.1628	0.00923652	-5.54302	0	0
60.1634	0.00929379	-5.47914	0	0
60.164	0.00937014	-5.41691	0	0
60.1646	0.00919835	-5.35609	0	0
60.1652	0.00923652	-5.29622	0	0
60.1658	0.00914108	-5.23755	0	0
60.1664	0.00921743	-5.1794	0	0
60.167	0.00923652	-5.12348	0	0
60.1676	0.00937014	-5.06831	0	0
60.1682	0.00931287	-5.01404	0	0
60.1688	0.00929379	-4.96123	0	0
60.1694	0.00917926	-4.90874	0	0
60.17	0.00929379	-4.85733	0	0
60.1708	0.00923652	-4.79085	0	0
60.1716	0.00921743	-4.725	0	0
60.1724	0.00929379	-4.66143	0	0
60.1732	0.00919835	-4.59896	0	0
60.174	0.00921743	-4.53832	0	0
60.1748	0.00921743	-4.47972	0	0
60.1756	0.00925561	-4.4203	0	0
60.1764	0.00937014	-4.36361	0	0
60.1772	0.00923652	-4.30876	0	0
60.178	0.00921743	-4.25405	0	0
60.1788	0.00925561	-4.20086	0	0
60.1796	0.00921743	-4.14938	0	0
60.1804	0.00933196	-4.09791	0	0
60.1814	0.00921743	-4.03613	0	0
60.1824	0.00914108	-3.97683	0	0
60.1834	0.00925561	-3.91709	0	0
60.1844	0.00925561	-3.86078	0	0
60.1854	0.00935105	-3.80441	0	0
60.1864	0.00923652	-3.75046	0	0
60.1874	0.00919835	-3.69822	0	0
60.1884	0.00917926	-3.64662	0	0
60.1894	0.00925561	-3.5961	0	0
60.1906	0.00923652	-3.53668	0	0
60.1918	0.00929379	-3.47986	0	0
60.193	0.0092747	-3.424	0	0
60.1942	0.00931287	-3.37005	0	0
60.1954	0.00923652	-3.31838	0	0
60.1966	0.00923652	-3.26678	0	0
60.198	0.00933196	-3.20997	0	0
60.1994	0.00933196	-3.15321	0	0
60.2008	0.00931287	-3.09888	0	0
60.2022	0.00929379	-3.0469	0	0
60.2036	0.0092747	-2.99523	0	0
60.2052	0.00931287	-2.93893	0	0
60.2068	0.00923652	-2.88427	0	0
60.2084	0.00929379	-2.83191	0	0
60.21	0.00921743	-2.78082	0	0
60.2116	0.00923652	-2.73068	0	0
60.2134	0.00925561	-2.67718	0	0
60.2152	0.00937014	-2.62539	0	0
60.217	0.00935105	-2.57429	0	0
60.219	0.00923652	-2.5199	0	0
60.221	0.00933196	-2.46919	0	0
60.223	0.00919835	-2.41848	0	0
60.2252	0.00935105	-2.36548	0	0
60.2274	0.00923652	-2.31452	0	0
60.2298	0.00919835	-2.26152	0	0
60.2322	0.0092747	-2.21024	0	0
60.2348	0.00921743	-2.15673	0	0
60.2374	0.00931287	-2.10621	0	0
60.2402	0.00929379	-2.05397	0	0
60.2432	0.00925561	-2.00193	0	0
60.2462	0.00938923	-1.94995	0	0
60.2494	0.00925561	-1.89828	0	0
60.2528	0.00925561	-1.84643	0	0
60.2562	0.00933196	-1.79642	0	0
60.2598	0.00931287	-1.74641	0	0
60.2638	0.00931287	-1.69469	0	0
60.2678	0.00931287	-1.64449	0	0
60.2722	0.00933196	-1.59295	0	0
60.2768	0.0092747	-1.54192	0	0
60.2816	0.00929379	-1.49172	0	0
60.2868	0.00919835	-1.43987	0	0
60.2924	0.0092747	-1.38884	0	0
60.2982	0.00933196	-1.33877	0	0
60.3044	0.00917926	-1.288	0	0
60.3112	0.0092747	-1.23684	0	0
60.3184	0.00931287	-1.18588	0	0
60.3264	0.00917926	-1.13441	0	0
60.335	0.00923652	-1.08414	0	0
60.3442	0.00929379	-1.03388	0	0
60.3544	0.00937014	-0.983682	0	0
60.3656	0.00929379	-0.9331	0	0
60.378	0.00925561	-0.882709	0	0
60.392	0.00929379	-0.831873	0	0
60.4076	0.00935105	-0.781674	0	0
60.425	0.00925561	-0.731665	0	0
60.4444	0.00925561	-0.681656	0	0
60.4668	0.00933196	-0.63152	0	0
60.493	0.00925561	-0.581511	0	0
60.524	0.00925561	-0.530866	0	0
60.5614	0.00917926	-0.48003	0	0
60.6074	0.00933196	-0.42983	0	0
60.674	0.00917926	-0.374738	0	0
60.7522	0.00929379	-0.324583	0	0
60.8608	0.00935105	-0.274517	0	0
61.0216	0.0092747	-0.224502	0	0
61.2832	0.00923652	-0.174462	0	0
61.7694	0.00925561	-0.124415	0	0
62.8756	0.00933196	-0.0744064	0	0
68.3542	0.00938923	-0.0244007	0	0
78.3542	0.00925561	-0.0111624	0	0
88.3542	0.00917926	-0.00704915	0	0
98.3542	0.00925561	-0.00510515	0	0
108.354	0.00923652	-0.00401305	0	0
118.354	0.00935105	-0.00324919	0	0
128.354	0.0092747	-0.00278563	0	0
138.354	0.00937014	-0.00246706	0	0
148.354	0.00931287	-0.00212645	0	0
158.354	0.00931287	-0.00194841	0	0
168.354	0.00929379	-0.00177636	0	0
178.354	0.00923652	-0.0016513	0	0
188.354	0.00919835	-0.00151249	0	0
198.354	0.00931287	-0.00140716	0	0
208.354	0.00935105	-0.00131655	0	0
218.354	0.00935105	-0.00123594	0	0
228.354	0.00923652	-0.00123524	0	0
238.354	0.00925561	-0.00113368	0	0
248.354	0.00923652	-0.00107019	0	0
258.354	0.00923652	-0.00102848	0	0
268.354	0.0092747	-0.00101199	0	0
278.354	0.00925561	-0.00095016	0	0
288.354	0.00925561	-0.000954808	0	0
298.354	0.00925561	-0.000899028	0	0
308.354	0.00919835	-0.000902658	0	0
318.354	0.00917926	-0.000870692	0	0
328.354	0.00931287	-0.000817013	0	0
338.354	0.0092747	-0.000785748	0	0
348.354	0.00929379	-0.00077868	0	0
358.354	0.00929379	-0.000780845	0	0
368.354	0.00931287	-0.000718824	0	0
378.354	0.00933196	-0.000718506	0	0
388.354	0.00917926	-0.000693481	0	0
398.354	0.0092747	-0.000699721	0	0
408.354	0.00917926	-0.000684948	0	0
418.354	0.00917926	-0.000684757	0	0
428.354	0.0092747	-0.000684248	0	0
438.354	0.00929379	-0.000681828	0	0
448.354	0.00929379	-0.000599495	0	0
458.354	0.00921743	-0.000604716	0	0
468.354	0.00935105	-0.000622164	0	0
478.354	0.00925561	-0.000624456	0	0
488.354	0.00931287	-0.000580583	0	0
498.354	0.00923652	-0.000540785	0	0
508.354	0.00912199	-0.00057084	0	0
518.354	0.00917926	-0.000570331	0	0
528.354	0.00923652	-0.000534036	0	0
538.354	0.00916017	-0.00057638	0	0
548.354	0.00917926	-0.000539002	0	0
558.354	0.00921743	-0.000533908	0	0
568.354	0.00933196	-0.000513022	0	0
578.354	0.0092747	-0.000506273	0	0
588.354	0.00931287	-0.000489144	0	0
598.354	0.00933196	-0.000494556	0	0
608.354	0.00925561	-0.000491755	0	0
618.354	0.00925561	-0.000470359	0	0
628.354	0.00933196	-0.000517289	0	0
638.354	0.00919835	-0.000480102	0	0
648.354	0.00929379	-0.000485833	0	0
658.354	0.00917926	-0.000445908	0	0
668.354	0.00929379	-0.000452339	0	0
678.354	0.0092747	-0.000467367	0	0
688.354	0.0092747	-0.00048042	0	0
698.354	0.0092747	-0.000478064	0	0
708.354	0.00925561	-0.00045011	0	0
718.354	0.00925561	-0.000404709	0	0
728.354	0.00935105	-0.000427059	0	0
738.354	0.00921743	-0.000411077	0	0
748.354	0.00923652	-0.000452212	0	0
758.354	0.00923652	-0.000400315	0	0
768.354	0.00923652	-0.000413687	0	0
778.354	0.00925561	-0.000401907	0	0
788.354	0.00923652	-0.000402226	0	0
798.354	0.00917926	-0.000445653	0	0
808.354	0.0092747	-0.000400697	0	0
818.354	0.00929379	-0.000395412	0	0
828.354	0.00917926	-0.000385797	0	0
838.354	0.00933196	-0.000393757	0	0
848.354	0.00937014	-0.000403436	0	0
858.354	0.00925561	-0.000397259	0	0
868.354	0.00923652	-0.000405983	0	0
878.354	0.00923652	-0.000367586	0	0
888.354	0.00914108	-0.000380767	0	0
898.354	0.00925561	-0.000359372	0	0
908.354	0.00921743	-0.000341351	0	0
918.354	0.0092747	-0.000377647	0	0
928.354	0.00929379	-0.000384269	0	0
938.354	0.00937014	-0.000385479	0	0
948.354	0.00931287	-0.00037771	0	0
958.354	0.00925561	-0.000362364	0	0
968.354	0.00923652	-0.000345172	0	0
978.354	0.00917926	-0.000325177	0	0
988.354	0.00929379	-0.000376055	0	0
998.354	0.00916017	-0.000348419	0	0
1008.35	0.00921743	-0.000332373	0	0
1018.35	0.00933196	-0.000359754	0	0
1028.35	0.00935105	-0.000318937	0	0
1038.35	0.00925561	-0.000369432	0	0
1048.35	0.00919835	-0.000327724	0	0
1058.35	0.00935105	-0.000348738	0	0
1068.35	0.0092747	-0.000355933	0	0
1078.35	0.00933196	-0.000334665	0	0
1088.35	0.00925561	-0.000321229	0	0
1098.35	0.00929379	-0.000349247	0	0
1108.35	0.00929379	-0.000316517	0	0
1118.35	0.00923652	-0.000334283	0	0
1128.35	0.00921743	-0.000328807	0	0
1138.35	0.00935105	-0.000331227	0	0
1148.35	0.00919835	-0.000332946	0	0
1158.35	0.0092747	-0.000338613	0	0
1168.35	0.00916017	-0.000283469	0	0
1178.35	0.00914108	-0.000363447	0	0
1188.35	0.00917926	-0.000315944	0	0
1198.35	0.0092747	-0.000312442	0	0
1208.35	0.00931287	-0.00031276	0	0
1218.35	0.00923652	-0.000333137	0	0
1228.35	0.00923652	-0.000283087	0	0
1238.35	0.00921743	-0.000326897	0	0
1248.35	0.00916017	-0.000296841	0	0
1258.35	0.00929379	-0.000294485	0	0
1268.35	0.00925561	-0.000300216	0	0
1278.35	0.00919835	-0.000269843	0	0
1288.35	0.00937014	-0.000309704	0	0
1298.35	0.00917926	-0.000299006	0	0
1308.35	0.00917926	-0.000279458	0	0
1318.35	0.00933196	-0.000276529	0	0
1328.35	0.00931287	-0.000273281	0	0
1338.35	0.00916017	-0.000305438	0	0
1348.35	0.00917926	-0.000309322	0	0
1358.35	0.00931287	-0.000266786	0	0
1368.35	0.00937014	-0.000288564	0	0
1378.35	0.00919835	-0.00027933	0	0
1388.35	0.0092747	-0.000253796	0	0
1398.35	0.00929379	-0.000250804	0	0
1408.35	0.0092747	-0.000264176	0	0
1418.35	0.00917926	-0.0002601	0	0
1428.35	0.00923652	-0.000268697	0	0
1438.35	0.00933196	-0.000288882	0	0
1448.35	0.00916017	-0.000289519	0	0
1458.35	0.00931287	-0.000245455	0	0
1468.35	0.00933196	-0.000280031	0	0
1478.35	0.00929379	-0.000268824	0	0
1488.35	0.00931287	-0.000250485	0	0
1498.35	0.00921743	-0.000242653	0	0
1508.35	0.00914108	-0.00026252	0	0
1518.35	0.00919835	-0.000285316	0	0
1528.35	0.00929379	-0.000278439	0	0
1538.35	0.00925561	-0.000272326	0	0
1548.35	0.00929379	-0.000246091	0	0
1558.35	0.00925561	-0.000229408	0	0
1568.35	0.0092747	-0.000253733	0	0
1578.35	0.00919835	-0.000282387	0	0
1588.35	0.00929379	-0.000260992	0	0
1598.35	0.00923652	-0.000239214	0	0
1608.35	0.00921743	-0.00026997	0	0
1618.35	0.00921743	-0.000264749	0	0
1628.35	0.00923652	-0.000223614	0	0
1638.35	0.00935105	-0.000251695	0	0
1648.35	0.00929379	-0.000276274	0	0
1658.35	0.00931287	-0.000229854	0	0
1668.35	0.00919835	-0.000258126	0	0
1678.35	0.00929379	-0.000260419	0	0
1688.35	0.0092747	-0.000259527	0	0
1698.35	0.00916017	-0.000244945	0	0
1708.35	0.00925561	-0.000225842	0	0
1718.35	0.00921743	-0.000228899	0	0
1728.35	0.00925561	-0.000241761	0	0
1738.35	0.00925561	-0.000258063	0	0
1748.35	0.0092747	-0.000234439	0	0
1758.35	0.00929379	-0.000241889	0	0
1768.35	0.00921743	-0.000247492	0	0
1778.35	0.00925561	-0.000233738	0	0
1788.35	0.00925561	-0.000248702	0	0
1798.35	0.00921743	-0.000243099	0	0
1808.35	0.00923652	-0.000241061	0	0
1818.35	0.00931287	-0.000233356	0	0
1828.35	0.00917926	-0.000237049	0	0
1838.35	0.0092747	-0.000250485	0	0
1848.35	0.00921743	-0.000264048	0	0
1858.35	0.00923652	-0.000240997	0	0
1860.05	0.00917926	-0.000229599	0	0