File: EXPERIMENTAL/DATA/Electrochemical-cycling/S-series/2024-06-27_S17_Icell_t1800_C0010_J01_deltaX-110,3mm_02_MB_C04.txt
time/s	Ewe/V	I/mA	error	Ece/V
60.053	2.78643	-0.0250249	0	-0.000304428
60.1732	0.00934635	-7.48019	0	-0.000123172
60.1736	0.00932727	-7.41846	0	-4.68203e-05
60.174	0.00942272	-7.36373	0	-8.64441e-06
60.1744	0.00936545	-7.30964	0	-2.77323e-05
60.1748	0.00932727	-7.25491	0	6.77073e-05
60.1752	0.00940363	-7.20082	0	-0.000104084
60.1758	0.00928908	-7.11999	0	-8.49961e-05
60.1762	0.00944181	-7.06399	0	2.95314e-05
60.1768	0.00928908	-6.99017	0	0.000105883
60.1774	0.00936545	-6.91444	0	-6.59082e-05
60.1778	0.00932727	-6.86226	0	-0.000199524
60.1784	0.00928908	-6.79989	0	-0.000123172
60.1788	0.00934635	-6.74962	0	-0.000123172
60.1794	0.00942272	-6.68344	0	-8.49961e-05
60.18	0.00936545	-6.60643	0	4.86194e-05
60.1806	0.00932727	-6.5358	0	-4.68203e-05
60.1812	0.00930818	-6.47979	0	-6.59082e-05
60.1818	0.00928908	-6.41297	0	-0.000180436
60.1824	0.00936545	-6.35252	0	6.77073e-05
60.183	0.00934635	-6.29588	0	-2.77323e-05
60.1834	0.00940363	-6.24433	0	-8.49961e-05
60.184	0.00926999	-6.18897	0	-0.000104084
60.1846	0.00942272	-6.13869	0	2.95314e-05
60.1852	0.00936545	-6.07887	0	1.04435e-05
60.1858	0.00926999	-6.01587	0	2.95314e-05
60.1866	0.00936545	-5.95414	0	-0.000123172
60.1872	0.00932727	-5.89305	0	-8.49961e-05
60.188	0.00940363	-5.81986	0	6.77073e-05
60.1888	0.00938454	-5.75432	0	-4.68203e-05
60.1896	0.00938454	-5.69768	0	-4.68203e-05
60.1902	0.00938454	-5.64741	0	-4.68203e-05
60.1908	0.00940363	-5.59395	0	-8.64441e-06
60.1916	0.00944181	-5.53095	0	-8.49961e-05
60.1924	0.00928908	-5.47176	0	-0.00014226
60.1932	0.00928908	-5.41767	0	-6.59082e-05
60.194	0.00934635	-5.35785	0	-6.59082e-05
60.1948	0.00930818	-5.30312	0	-2.77323e-05
60.1956	0.00942272	-5.24903	0	-0.00014226
60.1964	0.00934635	-5.19239	0	1.04435e-05
60.1972	0.00942272	-5.14021	0	-0.000104084
60.1982	0.00930818	-5.07657	0	-4.68203e-05
60.199	0.00926999	-5.0263	0	0.000105883
60.2	0.00940363	-4.97284	0	-0.000104084
60.2008	0.00932727	-4.92002	0	-6.59082e-05
60.2018	0.00936545	-4.86275	0	6.77073e-05
60.2028	0.00936545	-4.80038	0	-0.000123172
60.2038	0.0094609	-4.74501	0	1.04435e-05
60.2048	0.00928908	-4.69474	0	-6.59082e-05
60.2058	0.0092509	-4.64065	0	1.04435e-05
60.2068	0.00934635	-4.58783	0	-2.77323e-05
60.208	0.00938454	-4.53119	0	-4.68203e-05
60.2092	0.00934635	-4.47455	0	-2.77323e-05
60.2104	0.00940363	-4.423	0	-2.77323e-05
60.2116	0.00936545	-4.367	0	4.86194e-05
60.2128	0.00936545	-4.31546	0	-2.77323e-05
60.2142	0.00932727	-4.25373	0	-6.59082e-05
60.2156	0.00940363	-4.19327	0	-8.64441e-06
60.217	0.00932727	-4.12963	0	-8.64441e-06
60.2186	0.00932727	-4.07299	0	-2.77323e-05
60.22	0.00944181	-4.0189	0	-4.68203e-05
60.2214	0.00934635	-3.96035	0	-4.68203e-05
60.223	0.00926999	-3.90626	0	-4.68203e-05
60.2248	0.0092509	-3.84835	0	6.77073e-05
60.2264	0.00938454	-3.79808	0	-0.000123172
60.2282	0.00938454	-3.73317	0	2.95314e-05
60.2298	0.00938454	-3.68162	0	-8.64441e-06
60.2316	0.00923181	-3.62498	0	1.04435e-05
60.2338	0.00942272	-3.55752	0	-2.77323e-05
60.236	0.00934635	-3.50661	0	6.77073e-05
60.2378	0.00940363	-3.45507	0	-6.59082e-05
60.2398	0.00944181	-3.40288	0	-0.000104084
60.2418	0.00928908	-3.34561	0	-2.77323e-05
60.2442	0.00938454	-3.28643	0	-6.59082e-05
60.2464	0.00942272	-3.23297	0	-4.68203e-05
60.2488	0.00930818	-3.17569	0	2.95314e-05
60.2514	0.00932727	-3.12415	0	-8.49961e-05
60.2536	0.00930818	-3.07324	0	-4.68203e-05
60.2562	0.00926999	-3.02296	0	-8.64441e-06
60.259	0.00938454	-2.96569	0	4.86194e-05
60.2618	0.00932727	-2.91096	0	6.77073e-05
60.265	0.00932727	-2.85114	0	4.86194e-05
60.2684	0.00936545	-2.79196	0	-2.77323e-05
60.2714	0.00938454	-2.74105	0	-4.68203e-05
60.273	0.00940363	-2.80765	0	1.04435e-05
60.3032	0.00932727	-2.30704	0	-4.68203e-05
60.3076	0.00934635	-2.25657	0	-0.00014226
60.3124	0.00938454	-2.20433	0	-8.64441e-06
60.3174	0.00930818	-2.15399	0	-8.64441e-06
60.3226	0.00944181	-2.10213	0	2.95314e-05
60.3282	0.00928908	-2.05071	0	0.000220411
60.3338	0.00926999	-2.00031	0	-8.64441e-06
60.3398	0.00921272	-1.95016	0	2.95314e-05
60.3462	0.00936545	-1.89881	0	8.67952e-05
60.3528	0.00936545	-1.84815	0	-0.000123172
60.36	0.00930818	-1.7975	0	-0.000104084
60.3676	0.0092509	-1.74583	0	-6.59082e-05
60.3756	0.00928908	-1.69422	0	-6.59082e-05
60.3842	0.00940363	-1.64413	0	-2.77323e-05
60.393	0.00938454	-1.59399	0	-4.68203e-05
60.4026	0.00932727	-1.5434	0	6.77073e-05
60.4128	0.0092509	-1.49319	0	-4.68203e-05
60.4236	0.00934635	-1.44311	0	-8.64441e-06
60.4354	0.00940363	-1.3922	0	6.77073e-05
60.4482	0.00928908	-1.34192	0	-0.00014226
60.4616	0.00944181	-1.29184	0	-0.000161348
60.4766	0.00938454	-1.24182	0	6.77073e-05
60.4926	0.00936545	-1.19142	0	-0.000104084
60.5102	0.00934635	-1.14134	0	2.95314e-05
60.5298	0.00938454	-1.09005	0	-2.77323e-05
60.5516	0.00932727	-1.0392	0	-6.59082e-05
60.5758	0.00944181	-0.988739	0	-6.59082e-05
60.6024	0.00940363	-0.938275	0	1.04435e-05
60.632	0.00936545	-0.887939	0	0.000144059
60.666	0.00936545	-0.837793	0	-0.000123172
60.704	0.0094609	-0.787392	0	2.95314e-05
60.7482	0.00944181	-0.737374	0	-8.64441e-06
60.799	0.00936545	-0.687355	0	-8.64441e-06
60.8574	0.00932727	-0.637273	0	-2.77323e-05
60.9282	0.00926999	-0.586618	0	4.86194e-05
61.0134	0.00936545	-0.536218	0	-0.000104084
61.115	0.00936545	-0.486199	0	-6.59082e-05
61.2394	0.00926999	-0.436181	0	4.86194e-05
61.3988	0.00928908	-0.386175	0	6.77073e-05
61.6042	0.00932727	-0.336137	0	1.04435e-05
61.8822	0.00934635	-0.2861	0	-0.000104084
62.2812	0.00934635	-0.236031	0	-8.64441e-06
62.894	0.00938454	-0.185898	0	-4.68203e-05
63.9524	0.00940363	-0.135873	0	1.04435e-05
66.221	0.00940363	-0.085817	0	-8.64441e-06
74.7268	0.00936545	-0.0358042	0	-2.77323e-05
84.7268	0.00928908	-0.0211287	0	-0.000104084
94.7268	0.00930818	-0.0149021	0	2.95314e-05
104.727	0.00938454	-0.0114386	0	-8.49961e-05
114.727	0.0092509	-0.00932446	0	-0.000123172
124.727	0.00938454	-0.00787644	0	-2.77323e-05
134.727	0.00944181	-0.00672044	0	-8.64441e-06
144.727	0.00932727	-0.00599007	0	1.04435e-05
154.727	0.00936545	-0.00538186	0	1.04435e-05
164.727	0.00936545	-0.00480672	0	-6.59082e-05
174.727	0.00936545	-0.0044872	0	-4.68203e-05
184.727	0.00938454	-0.00409946	0	-0.00014226
194.727	0.00928908	-0.00382701	0	-6.59082e-05
204.727	0.00930818	-0.00356875	0	6.77073e-05
214.727	0.00928908	-0.00332533	0	1.04435e-05
224.727	0.00942272	-0.00313334	0	-0.000180436
234.727	0.00932727	-0.00299126	0	4.86194e-05
244.727	0.00942272	-0.00285	0	-4.68203e-05
254.727	0.00938454	-0.00277826	0	4.86194e-05
264.727	0.00938454	-0.00259779	0	-6.59082e-05
274.727	0.00938454	-0.00246246	0	4.86194e-05
284.727	0.00930818	-0.00236844	0	4.86194e-05
294.727	0.00930818	-0.00225736	0	-4.68203e-05
304.727	0.00932727	-0.00217581	0	2.95314e-05
314.727	0.00934635	-0.00209853	0	-6.59082e-05
324.727	0.00938454	-0.002028	0	-4.68203e-05
334.727	0.00934635	-0.00195008	0	1.04435e-05
344.727	0.00936545	-0.00190495	0	-4.68203e-05
354.727	0.00938454	-0.00185714	0	-2.77323e-05
364.727	0.00926999	-0.00178114	0	1.04435e-05
374.727	0.00942272	-0.00175166	0	-0.000218612
384.727	0.00926999	-0.00170863	0	6.77073e-05
394.727	0.00936545	-0.0016409	0	-8.64441e-06
404.727	0.00932727	-0.00156757	0	1.04435e-05
414.727	0.00940363	-0.00157425	0	-8.64441e-06
424.727	0.00944181	-0.00149073	0	-8.64441e-06
434.727	0.00938454	-0.00151289	0	8.67952e-05
444.727	0.00926999	-0.00146234	0	-0.000104084
454.727	0.00942272	-0.00144426	0	-0.00014226
464.727	0.00944181	-0.00140091	0	2.95314e-05
474.727	0.00940363	-0.00138551	0	8.67952e-05
484.727	0.00928908	-0.00134668	0	-2.77323e-05
494.727	0.00921272	-0.00128665	0	4.86194e-05
504.727	0.00938454	-0.00125641	0	0.000144059
514.727	0.00932727	-0.00121771	0	2.95314e-05
524.727	0.00928908	-0.00124114	0	2.95314e-05
534.727	0.00932727	-0.00121981	0	-8.64441e-06
544.727	0.00932727	-0.00119206	0	-8.64441e-06
554.727	0.00934635	-0.00117258	0	6.77073e-05
564.727	0.00938454	-0.00112904	0	-6.59082e-05
574.727	0.00915545	-0.00114247	0	4.86194e-05
584.727	0.00932727	-0.00113432	0	2.95314e-05
594.727	0.00934635	-0.00108021	0	8.67952e-05
604.727	0.00928908	-0.00111898	0	-0.00014226
614.727	0.00938454	-0.00104488	0	-8.64441e-06
624.727	0.00932727	-0.00104577	0	6.77073e-05
634.727	0.00936545	-0.00101242	0	-0.000123172
644.727	0.00917454	-0.00102368	0	2.95314e-05
654.727	0.00934635	-0.000962126	0	4.86194e-05
664.727	0.00930818	-0.000950541	0	2.95314e-05
674.727	0.00926999	-0.000963845	0	-2.77323e-05
684.727	0.00926999	-0.000930871	0	-4.68203e-05
694.727	0.00934635	-0.000930871	0	2.95314e-05
704.727	0.00938454	-0.000960981	0	-6.59082e-05
714.727	0.00926999	-0.000929534	0	-8.64441e-06
724.727	0.00928908	-0.000920176	0	-8.49961e-05
734.727	0.00938454	-0.000906363	0	-8.64441e-06
744.727	0.00917454	-0.000891849	0	0.000105883
754.727	0.00934635	-0.000920113	0	4.86194e-05
764.727	0.00936545	-0.00083755	0	-4.68203e-05
774.727	0.00934635	-0.000855692	0	0.000124971
784.727	0.00932727	-0.000824627	0	-8.64441e-06
794.727	0.00926999	-0.000843852	0	-8.64441e-06
804.727	0.00940363	-0.000824436	0	1.04435e-05
814.727	0.00930818	-0.000815079	0	-8.64441e-06
824.727	0.00930818	-0.000847544	0	-2.77323e-05
834.727	0.00928908	-0.000763326	0	-4.68203e-05
844.727	0.00936545	-0.000787006	0	4.86194e-05
854.727	0.00934635	-0.000759952	0	8.67952e-05
864.727	0.00928908	-0.000731624	0	-8.49961e-05
874.727	0.00930818	-0.000777457	0	-2.77323e-05
884.727	0.00938454	-0.000762498	0	2.95314e-05
894.727	0.00938454	-0.000749448	0	-4.68203e-05
904.727	0.00938454	-0.000769309	0	2.95314e-05
914.727	0.00936545	-0.000718893	0	-2.77323e-05
924.727	0.00932727	-0.00079439	0	2.95314e-05
934.727	0.00930818	-0.000710936	0	4.86194e-05
944.727	0.0092509	-0.000696486	0	4.86194e-05
954.727	0.0094609	-0.000653963	0	2.95314e-05
964.727	0.00944181	-0.000721057	0	-8.49961e-05
974.727	0.00938454	-0.000643714	0	-8.64441e-06
984.727	0.00930818	-0.000706798	0	1.04435e-05
994.727	0.00932727	-0.000675861	0	-6.59082e-05
1004.73	0.00940363	-0.000692284	0	1.04435e-05
1014.73	0.00934635	-0.000671914	0	-0.000104084
1024.73	0.00936545	-0.000671214	0	-6.59082e-05
1034.73	0.00928908	-0.000642186	0	-8.64441e-06
1044.73	0.00940363	-0.000629391	0	-6.59082e-05
1054.73	0.00936545	-0.000634038	0	2.95314e-05
1064.73	0.00940363	-0.000639449	0	-6.59082e-05
1074.73	0.00940363	-0.000643205	0	-8.64441e-06
1084.73	0.00942272	-0.000646069	0	-4.68203e-05
1094.73	0.00940363	-0.000614368	0	2.95314e-05
1104.73	0.00938454	-0.000604056	0	1.04435e-05
1114.73	0.00928908	-0.000603419	0	-0.00014226
1124.73	0.00930818	-0.000568026	0	2.95314e-05
1134.73	0.00934635	-0.000603738	0	-4.68203e-05
1144.73	0.00936545	-0.000597881	0	0.000124971
1154.73	0.00934635	-0.000561151	0	-8.49961e-05
1164.73	0.00938454	-0.000586677	0	4.86194e-05
1174.73	0.00934635	-0.000623662	0	-0.000104084
1184.73	0.00942272	-0.00058846	0	-4.68203e-05
1194.73	0.0094609	-0.000567135	0	6.77073e-05
1204.73	0.00936545	-0.000587378	0	2.95314e-05
1214.73	0.00921272	-0.000566053	0	4.86194e-05
1224.73	0.0092509	-0.000541545	0	4.86194e-05
1234.73	0.00938454	-0.000509843	0	1.04435e-05
1244.73	0.00934635	-0.000552175	0	0.000144059
1254.73	0.00938454	-0.000544791	0	1.04435e-05
1264.73	0.00932727	-0.000544282	0	4.86194e-05
1274.73	0.00940363	-0.000535752	0	8.67952e-05
1284.73	0.00919363	-0.000529895	0	1.04435e-05
1294.73	0.00936545	-0.000534288	0	1.04435e-05
1304.73	0.00932727	-0.000533333	0	8.67952e-05
1314.73	0.00942272	-0.00052684	0	0.000124971
1324.73	0.00921272	-0.000528431	0	1.04435e-05
1334.73	0.00951817	-0.000538553	0	8.67952e-05
1344.73	0.00940363	-0.000509334	0	-6.59082e-05
1354.73	0.00940363	-0.000513981	0	8.67952e-05
1364.73	0.00938454	-0.000504687	0	1.04435e-05
1374.73	0.00932727	-0.000478333	0	-8.64441e-06
1384.73	0.00938454	-0.000495202	0	2.95314e-05
1394.73	0.00944181	-0.00050787	0	-6.59082e-05
1404.73	0.00936545	-0.00050265	0	4.86194e-05
1414.73	0.00936545	-0.000511944	0	-4.68203e-05
1424.73	0.00932727	-0.000479415	0	4.86194e-05
1434.73	0.0092509	-0.000467957	0	-4.68203e-05
1444.73	0.00930818	-0.000476105	0	-8.64441e-06
1454.73	0.00930818	-0.000494757	0	4.86194e-05
1464.73	0.00930818	-0.000499531	0	1.04435e-05
1474.73	0.00932727	-0.000484317	0	-8.49961e-05
1484.73	0.00930818	-0.000467893	0	6.77073e-05
1494.73	0.00936545	-0.000438484	0	-8.64441e-06
1504.73	0.00926999	-0.000482025	0	4.86194e-05
1514.73	0.00942272	-0.000447396	0	-8.49961e-05
1524.73	0.00932727	-0.000435683	0	4.86194e-05
1534.73	0.00942272	-0.000461655	0	-4.68203e-05
1544.73	0.00926999	-0.000461082	0	2.95314e-05
1554.73	0.00932727	-0.000453507	0	6.77073e-05
1564.73	0.00934635	-0.000393669	0	4.86194e-05
1574.73	0.00928908	-0.000445486	0	-4.68203e-05
1584.73	0.00942272	-0.00043842	0	-6.59082e-05
1594.73	0.00928908	-0.00046592	0	-2.77323e-05
1604.73	0.00940363	-0.000489219	0	2.95314e-05
1614.73	0.00938454	-0.000437147	0	8.67952e-05
1624.73	0.00930818	-0.000468148	0	-8.64441e-06
1634.73	0.00930818	-0.000402072	0	-0.000104084
1644.73	0.00938454	-0.000436892	0	-4.68203e-05
1654.73	0.00938454	-0.000462928	0	2.95314e-05
1664.73	0.00936545	-0.000427726	0	-8.64441e-06
1674.73	0.00938454	-0.000430081	0	4.86194e-05
1684.73	0.00944181	-0.000444531	0	-0.00014226
1694.73	0.00928908	-0.000397807	0	-8.64441e-06
1704.73	0.00936545	-0.000426898	0	-2.77323e-05
1714.73	0.00921272	-0.000417732	0	-8.64441e-06
1724.73	0.00938454	-0.000399589	0	6.77073e-05
1734.73	0.00936545	-0.000409647	0	-0.000104084
1744.73	0.0092509	-0.000424288	0	-4.68203e-05
1754.73	0.00934635	-0.000445295	0	-8.64441e-06
1764.73	0.00940363	-0.000394115	0	2.95314e-05
1774.73	0.00938454	-0.000409584	0	-0.000104084
1784.73	0.00930818	-0.000390805	0	0.000144059
1794.73	0.00936545	-0.000425116	0	-2.77323e-05
1804.73	0.00926999	-0.000371453	0	-4.68203e-05
1814.73	0.00932727	-0.000389468	0	-0.000104084
1824.73	0.00938454	-0.000434792	0	6.77073e-05
1834.73	0.00934635	-0.000387686	0	4.86194e-05
1844.73	0.00936545	-0.00041474	0	2.95314e-05
1854.73	0.00938454	-0.000375209	0	0.000105883
1860.05	0.00928908	-0.00039176	0	0.000144059