File: EXPERIMENTAL/DATA/Electrochemical-cycling/S-series/2024-06-19_S07_Icell_t1800_C0003_J01_04_CP_C09.txt
time/s	Ewe/V	I/mA	error	Ece/V
1860.21	-0.00368934	-0.194647	0	-0.00158786
1860.21	-0.0107439	-0.195982	0	-0.00126722
1860.21	-0.0139328	-0.195982	0	0.000177165
1860.21	-0.0157652	-0.195982	0	5.39784e-06
1860.21	-0.0174639	-0.19598	0	0.00015808
1860.21	-0.0188	-0.195987	0	-5.1858e-05
1860.21	-0.0202697	-0.195984	0	-3.27727e-05
1860.21	-0.0216248	-0.195987	0	6.26537e-05
1860.21	-0.0229609	-0.195982	0	8.1739e-05
1860.21	-0.0242207	-0.195985	0	0.000196251
1860.21	-0.0255949	-0.195984	0	-1.36875e-05
1860.21	-0.0267592	-0.195987	0	4.35684e-05
1860.21	-0.0279808	-0.195982	0	4.35684e-05
1860.21	-0.0290305	-0.195985	0	-1.36875e-05
1860.21	-0.0302712	-0.195983	0	4.35684e-05
1860.21	-0.0314927	-0.195987	0	-1.36875e-05
1860.21	-0.0326761	-0.195981	0	5.39784e-06
1860.21	-0.0337068	-0.19598	0	2.44831e-05
1860.21	-0.0347757	-0.195982	0	8.1739e-05
1860.21	-0.0358064	-0.195987	0	5.39784e-06
1860.21	-0.0369898	-0.195983	0	5.39784e-06
1860.21	-0.0390321	-0.195985	0	-1.36875e-05
1860.21	-0.0401009	-0.195987	0	5.39784e-06
1860.21	-0.0422386	-0.195985	0	4.35684e-05
1860.21	-0.0441282	-0.195987	0	0.00011991
1860.21	-0.0452162	-0.195985	0	4.35684e-05
1860.21	-0.047144	-0.195983	0	5.39784e-06
1860.21	-0.0490908	-0.195987	0	4.35684e-05
1860.21	-0.0508277	-0.195991	0	6.26537e-05
1860.21	-0.0529082	-0.195984	0	0.00015808
1860.21	-0.0547214	-0.19598	0	-1.36875e-05
1860.21	-0.0564583	-0.195984	0	4.35684e-05
1860.21	-0.05747	-0.195987	0	0.000100824
1860.21	-0.0592069	-0.195989	0	2.44831e-05
1860.21	-0.0608674	-0.19598	0	5.39784e-06
1860.22	-0.0626997	-0.195985	0	0.000177165
1860.22	-0.0643985	-0.195984	0	0.000138995
1860.22	-0.0660781	-0.195986	0	0.00015808
1860.22	-0.0677196	-0.195989	0	0.000138995
1860.22	-0.069342	-0.195985	0	-3.27727e-05
1860.22	-0.0709644	-0.195985	0	0.000100824
1860.22	-0.0726631	-0.195977	0	0.000177165
1860.22	-0.0741328	-0.195989	0	0.000138995
1860.22	-0.0757361	-0.195987	0	5.39784e-06
1860.22	-0.0773394	-0.195984	0	8.1739e-05
1860.22	-0.0788281	-0.195986	0	0.00015808
1860.22	-0.0802215	-0.195982	0	2.44831e-05
1860.22	-0.081653	-0.195981	0	2.44831e-05
1860.22	-0.083199	-0.19598	0	0.000100824
1860.22	-0.0846496	-0.195981	0	8.1739e-05
1860.22	-0.0861575	-0.19598	0	2.44831e-05
1860.22	-0.0875318	-0.195985	0	0.000100824
1860.22	-0.0889251	-0.195987	0	4.35684e-05
1860.22	-0.0901848	-0.195981	0	8.1739e-05
1860.22	-0.09154	-0.195985	0	0.000100824
1860.22	-0.0929142	-0.195981	0	2.44831e-05
1860.22	-0.094403	-0.195985	0	-3.27727e-05
1860.22	-0.0957009	-0.195983	0	0.000100824
1860.22	-0.0968461	-0.195981	0	6.26537e-05
1860.22	-0.0981822	-0.19598	0	5.39784e-06
1860.23	-0.0995183	-0.19598	0	0.00011991
1860.23	-0.100778	-0.195982	0	0.00011991
1860.23	-0.102038	-0.19598	0	0.000100824
1860.23	-0.103278	-0.195984	0	4.35684e-05
1860.23	-0.104462	-0.195985	0	4.35684e-05
1860.23	-0.105607	-0.195975	0	-3.27727e-05
1860.23	-0.106771	-0.195989	0	4.35684e-05
1860.23	-0.107917	-0.19598	0	8.1739e-05
1860.23	-0.1091	-0.195983	0	6.26537e-05
1860.23	-0.110321	-0.195985	0	-1.36875e-05
1860.23	-0.111409	-0.195985	0	5.39784e-06
1860.23	-0.112631	-0.195985	0	-1.36875e-05
1860.23	-0.113757	-0.195987	0	8.1739e-05
1860.23	-0.114788	-0.195994	0	-1.36875e-05
1860.23	-0.115799	-0.195988	0	-1.36875e-05
1860.23	-0.116887	-0.195984	0	2.44831e-05
1860.23	-0.117937	-0.195987	0	6.26537e-05
1860.23	-0.119006	-0.195985	0	8.1739e-05
1860.23	-0.120056	-0.195985	0	8.1739e-05
1860.23	-0.121487	-0.195986	0	-1.36875e-05
1860.23	-0.123091	-0.195985	0	5.39784e-06
1860.23	-0.124522	-0.195986	0	-5.1858e-05
1860.23	-0.126049	-0.195986	0	4.35684e-05
1860.24	-0.127423	-0.195989	0	4.35684e-05
1860.24	-0.128931	-0.195985	0	2.44831e-05
1860.24	-0.130305	-0.195987	0	8.1739e-05
1860.24	-0.131699	-0.195977	0	0.000100824
1860.24	-0.132978	-0.195984	0	5.39784e-06
1860.24	-0.133989	-0.195978	0	6.26537e-05
1860.24	-0.135249	-0.19598	0	-1.36875e-05
1860.24	-0.13649	-0.195989	0	8.1739e-05
1860.24	-0.137673	-0.195984	0	5.39784e-06
1860.24	-0.139104	-0.195987	0	6.26537e-05
1860.24	-0.140211	-0.195991	0	8.1739e-05
1860.24	-0.141357	-0.195985	0	0.00015808
1860.24	-0.142712	-0.195986	0	5.39784e-06
1860.24	-0.143876	-0.195993	0	8.1739e-05
1860.24	-0.144964	-0.195984	0	0.000138995
1860.24	-0.146205	-0.195982	0	2.44831e-05
1860.24	-0.147331	-0.195991	0	5.39784e-06
1860.25	-0.148457	-0.195989	0	-0.000109114
1860.25	-0.149507	-0.19598	0	5.39784e-06
1860.25	-0.150652	-0.195985	0	0.000138995
1860.25	-0.151664	-0.195981	0	6.26537e-05
1860.25	-0.152752	-0.195984	0	-1.36875e-05
1860.25	-0.153973	-0.195987	0	-1.36875e-05
1860.25	-0.155156	-0.195985	0	8.1739e-05
1860.25	-0.156168	-0.195984	0	0.000100824
1860.25	-0.157199	-0.195985	0	-5.1858e-05
1860.25	-0.158401	-0.195984	0	-5.1858e-05
1860.25	-0.159413	-0.195989	0	8.1739e-05
1860.25	-0.160653	-0.195989	0	8.1739e-05
1860.25	-0.16178	-0.195987	0	0.000138995
1860.25	-0.162791	-0.195986	0	0.000138995
1860.25	-0.163917	-0.19598	0	5.39784e-06
1860.26	-0.165196	-0.19598	0	5.39784e-06
1860.26	-0.16638	-0.195984	0	0.000138995
1860.26	-0.167429	-0.195978	0	0.00015808
1860.26	-0.168517	-0.195989	0	6.26537e-05
1860.26	-0.169643	-0.195977	0	6.26537e-05
1860.26	-0.170693	-0.195991	0	0.00015808
1860.26	-0.1718	-0.195991	0	2.44831e-05
1860.26	-0.172869	-0.195982	0	8.1739e-05
1860.26	-0.1739	-0.195983	0	-5.1858e-05
1860.26	-0.175007	-0.195978	0	4.35684e-05
1860.26	-0.176247	-0.195987	0	5.39784e-06
1860.26	-0.177374	-0.195982	0	-3.27727e-05
1860.27	-0.178557	-0.195985	0	0.000100824
1860.27	-0.179664	-0.195981	0	6.26537e-05
1860.27	-0.180771	-0.195982	0	0.000100824
1860.27	-0.18205	-0.195986	0	4.35684e-05
1860.27	-0.183195	-0.195987	0	8.1739e-05
1860.27	-0.184321	-0.195986	0	8.1739e-05
1860.27	-0.185371	-0.195989	0	0.000100824
1860.27	-0.186402	-0.195978	0	0.000138995
1860.27	-0.187432	-0.195985	0	2.44831e-05
1860.28	-0.188558	-0.195985	0	-7.09433e-05
1860.28	-0.189666	-0.195989	0	-9.00286e-05
1860.28	-0.190773	-0.195984	0	4.35684e-05
1860.28	-0.191784	-0.195985	0	4.35684e-05
1860.28	-0.192796	-0.195986	0	6.26537e-05
1860.29	-0.193826	-0.195985	0	0.000138995
1860.29	-0.192758	-0.195982	0	5.39784e-06
1860.3	-0.191651	-0.195984	0	0.00015808
1860.3	-0.190582	-0.195991	0	6.26537e-05
1860.3	-0.189436	-0.195986	0	-9.00286e-05
1860.3	-0.188291	-0.195987	0	-3.27727e-05
1860.3	-0.187184	-0.195983	0	2.44831e-05
1860.3	-0.186134	-0.195991	0	6.26537e-05
1860.3	-0.185066	-0.19598	0	-1.36875e-05
1860.3	-0.183978	-0.195986	0	4.35684e-05
1860.3	-0.182794	-0.195991	0	6.26537e-05
1860.31	-0.181744	-0.195989	0	5.39784e-06
1860.31	-0.180561	-0.195987	0	5.39784e-06
1860.31	-0.179034	-0.195987	0	8.1739e-05
1860.31	-0.177813	-0.195988	0	5.39784e-06
1860.31	-0.176667	-0.195986	0	6.26537e-05
1860.31	-0.175446	-0.195986	0	5.39784e-06
1860.31	-0.17411	-0.195987	0	8.1739e-05
1860.31	-0.172831	-0.195983	0	5.39784e-06
1860.31	-0.171552	-0.195986	0	-1.36875e-05
1860.31	-0.170464	-0.195984	0	2.44831e-05
1860.31	-0.169128	-0.195985	0	4.35684e-05
1860.31	-0.167811	-0.195984	0	0.000138995
1860.31	-0.16678	-0.195987	0	2.44831e-05
1860.32	-0.165769	-0.195987	0	5.39784e-06
1860.32	-0.1647	-0.195988	0	-5.1858e-05
1860.32	-0.163688	-0.195985	0	5.39784e-06
1860.32	-0.162352	-0.195985	0	2.44831e-05
1860.32	-0.161226	-0.195982	0	6.26537e-05
1860.32	-0.159985	-0.195981	0	4.35684e-05
1860.32	-0.158936	-0.195989	0	0.00011991
1860.32	-0.157447	-0.195984	0	2.44831e-05
1860.32	-0.156187	-0.19598	0	0.000138995
1860.32	-0.154813	-0.195987	0	0.000100824
1860.32	-0.153801	-0.195981	0	-5.1858e-05
1860.32	-0.152752	-0.195985	0	8.1739e-05
1860.32	-0.151549	-0.195982	0	0.00015808
1860.32	-0.150175	-0.195982	0	6.26537e-05
1860.33	-0.149011	-0.195985	0	-7.09433e-05
1860.33	-0.147942	-0.195986	0	8.1739e-05
1860.33	-0.146816	-0.195988	0	4.35684e-05
1860.33	-0.145556	-0.195989	0	4.35684e-05
1860.33	-0.144277	-0.195985	0	-3.27727e-05
1860.33	-0.143094	-0.195992	0	0.000177165
1860.33	-0.141987	-0.195991	0	6.26537e-05
1860.33	-0.140899	-0.195985	0	4.35684e-05
1860.33	-0.139696	-0.195985	0	0.00015808
1860.33	-0.138646	-0.195982	0	4.35684e-05
1860.33	-0.137425	-0.195986	0	0.000196251
1860.33	-0.13628	-0.195983	0	2.44831e-05
1860.34	-0.135039	-0.19599	0	0.000100824
1860.34	-0.133779	-0.195988	0	2.44831e-05
1860.34	-0.132596	-0.195984	0	8.1739e-05
1860.34	-0.131393	-0.195982	0	-3.27727e-05
1860.34	-0.130363	-0.195992	0	-5.1858e-05
1860.34	-0.129275	-0.195988	0	4.35684e-05
1860.34	-0.128072	-0.195984	0	-0.000109114
1860.34	-0.126965	-0.195984	0	0.000100824
1860.34	-0.125954	-0.195986	0	8.1739e-05
1860.34	-0.124751	-0.195989	0	8.1739e-05
1860.35	-0.123568	-0.195988	0	6.26537e-05
1860.35	-0.122556	-0.195989	0	4.35684e-05
1860.35	-0.12143	-0.195987	0	6.26537e-05
1860.35	-0.120323	-0.195984	0	-3.27727e-05
1860.35	-0.119197	-0.195984	0	-5.1858e-05
1860.35	-0.118033	-0.195987	0	8.1739e-05
1860.36	-0.11683	-0.19598	0	0.00011991
1860.36	-0.115666	-0.195981	0	2.44831e-05
1860.36	-0.114616	-0.19599	0	0.000196251
1860.36	-0.113547	-0.195985	0	4.35684e-05
1860.36	-0.112536	-0.195988	0	0.00011991
1860.37	-0.111524	-0.195986	0	4.35684e-05
1860.37	-0.110493	-0.195987	0	0.000100824
1860.37	-0.109482	-0.195985	0	0.000100824
1860.37	-0.108356	-0.195989	0	6.26537e-05
1860.38	-0.107248	-0.195989	0	8.1739e-05
1860.38	-0.106199	-0.195989	0	0.000100824
1860.38	-0.105187	-0.19599	0	5.39784e-06
1860.39	-0.104137	-0.19598	0	0.000138995
1860.39	-0.103107	-0.195989	0	4.35684e-05
1860.4	-0.102038	-0.195988	0	8.1739e-05
1860.4	-0.101007	-0.195991	0	-1.36875e-05
1860.41	-0.0998619	-0.195988	0	5.39784e-06
1860.42	-0.0987357	-0.195986	0	4.35684e-05
1860.44	-0.097686	-0.195983	0	5.39784e-06
1860.45	-0.0966362	-0.195991	0	-3.27727e-05
1860.47	-0.0955864	-0.195985	0	6.26537e-05
1860.49	-0.0945748	-0.195984	0	6.26537e-05
1860.53	-0.0935632	-0.195985	0	0.000215336
1860.58	-0.0925516	-0.195986	0	8.1739e-05
1861.37	-0.0935632	-0.195978	0	0.000138995
1861.72	-0.0945939	-0.195985	0	-1.36875e-05
1862.12	-0.0956628	-0.195982	0	2.44831e-05
1862.61	-0.0966744	-0.195988	0	8.1739e-05
1863.19	-0.097686	-0.195986	0	5.39784e-06
1863.89	-0.0987166	-0.195986	0	-3.27727e-05
1864.69	-0.0997473	-0.195985	0	-5.1858e-05
1865.71	-0.100797	-0.19599	0	0.00015808
1866.9	-0.101809	-0.195986	0	8.1739e-05
1868.2	-0.102839	-0.195983	0	5.39784e-06
1869.74	-0.103851	-0.195985	0	8.1739e-05
1871.01	-0.104366	-0.195985	0	8.1739e-05