File: EXPERIMENTAL/DATA/Electrochemical-cycling/S-series/2024-06-25_S14_Icell_t1800_C0003_J01_deltaX-110,2mm_02_MB_C03.txt
time/s	Ewe/V	I/mA	error
60.053	2.93796	-0.0250202	0
60.1432	0.00929542	-7.47779	0
60.1434	0.00923816	-7.426	0
60.1438	0.00925724	-7.32547	0
60.1442	0.00929542	-7.22705	0
60.1446	0.00912363	-7.13148	0
60.145	0.00927633	-7.03885	0
60.1454	0.00912363	-6.94736	0
60.1458	0.00912363	-6.85886	0
60.1462	0.00916181	-6.77182	0
60.1466	0.00916181	-6.68758	0
60.147	0.00919998	-6.60545	0
60.1474	0.00919998	-6.52446	0
60.1478	0.00931451	-6.4455	0
60.1482	0.00923816	-6.36813	0
60.1486	0.00925724	-6.29306	0
60.149	0.00923816	-6.21913	0
60.1494	0.00923816	-6.14857	0
60.1498	0.00925724	-6.07782	0
60.1502	0.00923816	-6.00923	0
60.1506	0.0091809	-5.94249	0
60.151	0.0091809	-5.87779	0
60.1514	0.00927633	-5.8141	0
60.1518	0.00927633	-5.75118	0
60.1522	0.00916181	-5.69054	0
60.1526	0.00916181	-5.63029	0
60.153	0.0091809	-5.57284	0
60.1534	0.00925724	-5.51539	0
60.1538	0.00923816	-5.45985	0
60.1542	0.00933359	-5.40557	0
60.1546	0.00908546	-5.35226	0
60.155	0.00923816	-5.2999	0
60.1554	0.00919998	-5.24944	0
60.156	0.00929542	-5.17449	0
60.1566	0.00929542	-5.10279	0
60.1572	0.00931451	-5.03293	0
60.1578	0.00929542	-4.96524	0
60.1584	0.00923816	-4.90021	0
60.159	0.00916181	-4.83685	0
60.1596	0.00927633	-4.77602	0
60.1602	0.00929542	-4.71628	0
60.1608	0.00929542	-4.65832	0
60.1614	0.00923816	-4.60367	0
60.162	0.00923816	-4.5494	0
60.1626	0.00925724	-4.49614	0
60.1632	0.00921907	-4.44512	0
60.164	0.00912363	-4.38016	0
60.1648	0.00935268	-4.31641	0
60.1656	0.00929542	-4.25628	0
60.1664	0.00931451	-4.19686	0
60.1672	0.00927633	-4.14112	0
60.168	0.00923816	-4.0866	0
60.1688	0.00929542	-4.03449	0
60.1696	0.00937177	-3.98347	0
60.1706	0.00931451	-3.92423	0
60.1716	0.00935268	-3.86608	0
60.1726	0.00940994	-3.81035	0
60.1736	0.00929542	-3.75658	0
60.1746	0.00931451	-3.70505	0
60.1758	0.00939085	-3.64575	0
60.177	0.00931451	-3.59008	0
60.1782	0.00931451	-3.53549	0
60.1794	0.00929542	-3.48498	0
60.1808	0.00933359	-3.4281	0
60.1822	0.00931451	-3.37274	0
60.1836	0.00933359	-3.32159	0
60.185	0.00929542	-3.27158	0
60.1866	0.00931451	-3.21693	0
60.1882	0.00925724	-3.16584	0
60.19	0.00935268	-3.11023	0
60.1918	0.00931451	-3.05755	0
60.1938	0.00925724	-3.00246	0
60.1958	0.00923816	-2.9494	0
60.1978	0.00939085	-2.89907	0
60.2	0.00923816	-2.84563	0
60.2022	0.00937177	-2.79524	0
60.2046	0.00929542	-2.74287	0
60.207	0.00931451	-2.69236	0
60.2096	0.00937177	-2.64031	0
60.2122	0.00927633	-2.59018	0
60.215	0.00927633	-2.53877	0
60.218	0.00935268	-2.48641	0
60.221	0.00923816	-2.43634	0
60.2242	0.00933359	-2.38563	0
60.2276	0.00923816	-2.33295	0
60.2312	0.00939085	-2.2809	0
60.2348	0.00931451	-2.22994	0
60.2388	0.00935268	-2.17694	0
60.2428	0.00923816	-2.12649	0
60.247	0.00925724	-2.07445	0
60.2514	0.00927633	-2.02387	0
60.256	0.00937177	-1.9729	0
60.2608	0.00923816	-1.92251	0
60.266	0.00927633	-1.87028	0
60.2714	0.00935268	-1.81887	0
60.277	0.00929542	-1.76727	0
60.283	0.00937177	-1.71568	0
60.2892	0.00919998	-1.66567	0
60.2956	0.00942903	-1.61521	0
60.3026	0.00937177	-1.56501	0
60.3098	0.00929542	-1.51501	0
60.3176	0.00925724	-1.46398	0
60.3258	0.00929542	-1.41359	0
60.3346	0.00929542	-1.36333	0
60.344	0.00923816	-1.31281	0
60.354	0.00942903	-1.26179	0
60.365	0.00931451	-1.21063	0
60.3768	0.00937177	-1.16024	0
60.3894	0.00933359	-1.10973	0
60.4032	0.00919998	-1.05959	0
60.418	0.00931451	-1.00914	0
60.4344	0.00933359	-0.95913	0
60.4526	0.00933359	-0.908231	0
60.4728	0.00937177	-0.857841	0
60.4954	0.00933359	-0.806879	0
60.5204	0.00927633	-0.756871	0
60.549	0.00942903	-0.7068	0
60.5812	0.00935268	-0.656283	0
60.619	0.00931451	-0.605766	0
60.6624	0.00925724	-0.555694	0
60.7138	0.00939085	-0.505686	0
60.776	0.00929542	-0.455106	0
60.8744	0.00939085	-0.394259	0
60.975	0.00940994	-0.344096	0
61.1062	0.00931451	-0.29408	0
61.2854	0.00931451	-0.24405	0
61.5488	0.00937177	-0.194034	0
61.9802	0.00935268	-0.144017	0
62.83	0.00944812	-0.0939625	0
65.3402	0.00931451	-0.0439566	0
75.3402	0.00937177	-0.0125732	0
85.3402	0.00919998	-0.00715608	0
95.3402	0.00933359	-0.00478983	0
105.34	0.00935268	-0.00371459	0
115.34	0.00921907	-0.00304936	0
125.34	0.00931451	-0.00264451	0
135.34	0.00931451	-0.00225264	0
145.34	0.00935268	-0.00206036	0
155.34	0.00933359	-0.00185485	0
165.34	0.00927633	-0.00168574	0
175.34	0.00931451	-0.00155298	0
185.34	0.00931451	-0.00145706	0
195.34	0.00935268	-0.00137209	0
205.34	0.00939085	-0.00130565	0
215.34	0.00925724	-0.00120591	0
225.34	0.00939085	-0.00113285	0
235.34	0.00931451	-0.00113253	0
245.34	0.00931451	-0.00109065	0
255.34	0.00937177	-0.00101873	0
265.34	0.00925724	-0.000961384	0
275.34	0.00927633	-0.000977741	0
285.34	0.00931451	-0.00094019	0
295.34	0.00933359	-0.000881126	0
305.34	0.00939085	-0.000946618	0
315.34	0.0091809	-0.000893919	0
325.34	0.00933359	-0.000843257	0
335.34	0.00931451	-0.000781583	0
345.34	0.00923816	-0.000763572	0
355.34	0.00937177	-0.00074486	0
365.34	0.00916181	-0.000718001	0
375.34	0.00937177	-0.000691269	0
385.34	0.00937177	-0.000665875	0
395.34	0.00931451	-0.000707308	0
405.34	0.00927633	-0.000672367	0
415.34	0.00929542	-0.000625332	0
425.34	0.00935268	-0.000673067	0
435.34	0.00929542	-0.000634179	0
445.34	0.00929542	-0.000629342	0
455.34	0.00933359	-0.000626923	0
465.34	0.00939085	-0.000612157	0
475.34	0.00921907	-0.000571869	0
485.34	0.00933359	-0.000575561	0
495.34	0.00931451	-0.000556149	0
505.34	0.00931451	-0.00056315	0
515.34	0.00933359	-0.000556594	0
525.34	0.00927633	-0.000516306	0
535.34	0.00937177	-0.000540301	0
545.34	0.00933359	-0.000534254	0
555.34	0.00927633	-0.000494921	0
565.34	0.00933359	-0.000509178	0
575.34	0.00935268	-0.000458643	0
585.34	0.00937177	-0.00049804	0
595.34	0.00933359	-0.000454442	0
605.34	0.00927633	-0.00045877	0
615.34	0.00927633	-0.000471817	0
625.34	0.00933359	-0.000434584	0
635.34	0.00939085	-0.000731876	0
645.34	0.00931451	-0.000486774	0
655.34	0.00939085	-0.00042892	0
665.34	0.00929542	-0.000465007	0
675.34	0.00940994	-0.000422492	0
685.34	0.00944812	-0.0004209	0
695.34	0.00921907	-0.000446677	0
705.34	0.00935268	-0.000438785	0
715.34	0.00931451	-0.000435603	0
725.34	0.00929542	-0.000421855	0
735.34	0.00921907	-0.00042701	0
745.34	0.00929542	-0.000393532	0
755.34	0.00937177	-0.000379785	0
765.34	0.00925724	-0.00036852	0
775.34	0.00933359	-0.000382331	0
785.34	0.00931451	-0.000371956	0
795.34	0.00931451	-0.000383731	0
805.34	0.00929542	-0.00035038	0
815.34	0.00933359	-0.000377239	0
825.34	0.00929542	-0.000393914	0
835.34	0.00929542	-0.000361009	0
845.34	0.00933359	-0.000338415	0
855.34	0.00944812	-0.000330141	0
865.34	0.00931451	-0.00032785	0
875.34	0.00940994	-0.000324922	0
885.34	0.00923816	-0.000325113	0
895.34	0.00937177	-0.000364383	0
905.34	0.00931451	-0.000349235	0
915.34	0.00935268	-0.000343316	0
925.34	0.00937177	-0.000317603	0
935.34	0.00933359	-0.000331668	0
945.34	0.00925724	-0.000353372	0
955.34	0.00931451	-0.000529035	0
965.34	0.00933359	-0.000475191	0
975.34	0.00931451	-0.000359164	0
985.34	0.0091809	-0.000349617	0
995.34	0.00931451	-0.000305382	0
1005.34	0.00935268	-0.000323713	0
1015.34	0.00931451	-0.000290235	0
1025.34	0.00933359	-0.000293162	0
1035.34	0.00927633	-0.000303664	0
1045.34	0.00935268	-0.000279797	0
1055.34	0.00935268	-0.000300418	0
1065.34	0.00931451	-0.00028718	0
1075.34	0.00933359	-0.000311811	0
1085.34	0.00933359	-0.000280497	0
1095.34	0.00935268	-0.000326258	0
1105.34	0.00933359	-0.00031563	0
1115.34	0.00933359	-0.000267067	0
1125.34	0.00935268	-0.000279288	0
1135.34	0.00929542	-0.000268722	0
1145.34	0.00935268	-0.000255166	0
1155.34	0.00937177	-0.000248292	0
1165.34	0.00925724	-0.000241609	0
1175.34	0.00927633	-0.000241927	0
1185.34	0.00921907	-0.000258412	0
1195.34	0.00927633	-0.000240336	0
1205.34	0.00931451	-0.000225888	0
1215.34	0.00939085	-0.000225316	0
1225.34	0.00933359	-0.000255929	0
1235.34	0.00937177	-0.000253065	0
1245.34	0.00933359	-0.00027916	0
1255.34	0.00927633	-0.000259875	0
1265.34	0.00937177	-0.000266877	0
1275.34	0.00937177	-0.000239381	0
1285.34	0.00931451	-0.000226016	0
1295.34	0.00929542	-0.000210995	0
1305.34	0.00921907	-0.000216532	0
1315.34	0.00919998	-0.000231553	0
1325.34	0.00935268	-0.000219969	0
1335.34	0.00933359	-0.000249119	0
1345.34	0.00927633	-0.000222324	0
1355.34	0.00935268	-0.000232062	0
1365.34	0.00939085	-0.000227352	0
1375.34	0.0091809	-0.000239954	0
1385.34	0.00921907	-0.000208577	0
1395.34	0.00935268	-0.000214687	0
1405.34	0.00933359	-0.000206158	0
1415.34	0.00931451	-0.000234608	0
1425.34	0.00929542	-0.000217487	0
1435.34	0.00939085	-0.0002453	0
1445.34	0.00940994	-0.000205458	0
1455.34	0.00931451	-0.000171535	0
1465.34	0.00937177	-0.000215705	0
1475.34	0.00929542	-0.000229071	0
1485.34	0.00927633	-0.00022156	0
1495.34	0.00935268	-0.000195656	0
1505.34	0.00921907	-0.00018751	0
1515.34	0.00935268	-0.000222388	0
1525.34	0.00939085	-0.000197311	0
1535.34	0.00935268	-0.000205458	0
1545.34	0.00935268	-0.000217996	0
1555.34	0.00933359	-0.000162369	0
1565.34	0.00929542	-0.000191647	0
1575.34	0.00937177	-0.000165488	0
1585.34	0.00940994	-0.00016918	0
1595.34	0.00919998	-0.000196484	0
1605.34	0.00927633	-0.000196675	0
1615.34	0.00927633	-0.000210422	0
1625.34	0.00933359	-0.000164279	0
1635.34	0.00923816	-0.000180954	0
1645.34	0.00931451	-0.000169371	0
1655.34	0.00925724	-0.000185982	0
1665.34	0.00933359	-0.000185155	0
1675.34	0.00939085	-0.000184327	0
1685.34	0.00916181	-0.000179618	0
1695.34	0.00933359	-0.000183373	0
1705.34	0.00933359	-0.000197439	0
1715.34	0.00939085	-0.00015155	0
1725.34	0.0094672	-0.000148876	0
1735.34	0.00927633	-0.000174526	0
1745.34	0.00935268	-0.000197566	0
1755.34	0.00939085	-0.00015155	0
1765.34	0.00921907	-0.000195784	0
1775.34	0.00931451	-0.000143976	0
1785.34	0.00944812	-0.000181782	0
1795.34	0.00931451	-0.000160651	0
1805.34	0.00939085	-0.00018751	0
1815.34	0.00929542	-0.000160842	0
1825.34	0.00923816	-0.000156832	0
1835.34	0.00939085	-0.000183946	0
1845.34	0.00933359	-0.000177899	0
1855.34	0.00923816	-0.000178727	0
1860.05	0.00929542	-0.000131246	0