File: EXPERIMENTAL/DATA/Electrochemical-cycling/S-series/2024-06-14_S01_Icell_t0012_C0500_J01_deltaX-110,1mm_04_CP_C06.txt
time/s	Ewe/V	I/mA	error
72.2058	0.0434758	-0.194766	0
72.206	0.0347351	-0.195978	0
72.2062	0.0310392	-0.195983	0
72.2064	0.0288818	-0.195975	0
72.2066	0.0273353	-0.19598	0
72.2068	0.0262089	-0.195978	0
72.2072	0.0245097	-0.195982	0
72.2076	0.0230969	-0.195978	0
72.208	0.0217223	-0.195983	0
72.2084	0.0204623	-0.195981	0
72.2088	0.0193931	-0.195987	0
72.2094	0.0178467	-0.195977	0
72.21	0.0163766	-0.195983	0
72.2106	0.0149829	-0.195984	0
72.2112	0.0135701	-0.195983	0
72.2118	0.0122909	-0.19598	0
72.2124	0.0109545	-0.195983	0
72.213	0.00978989	-0.195979	0
72.2136	0.00854892	-0.195987	0
72.2142	0.00730794	-0.195985	0
72.2148	0.0062197	-0.195982	0
72.2154	0.00490236	-0.195985	0
72.216	0.00385231	-0.195979	0
72.2168	0.00240133	-0.195979	0
72.2174	0.00125581	-0.195982	0
72.2182	-2.33456e-05	-0.19598	0
72.2188	-0.00116886	-0.195987	0
72.2196	-0.00244802	-0.195985	0
72.2204	-0.00368899	-0.195985	0
72.221	-0.00477723	-0.19598	0
72.2218	-0.0060182	-0.195987	0
72.2224	-0.00704916	-0.195986	0
72.2232	-0.00829014	-0.195978	0
72.224	-0.00953111	-0.195982	0
72.2246	-0.010543	-0.195978	0
72.2254	-0.011593	-0.195981	0
72.2262	-0.0127385	-0.195986	0
72.227	-0.0139604	-0.19598	0
72.2278	-0.0150869	-0.195981	0
72.2286	-0.0163278	-0.195989	0
72.2294	-0.0173588	-0.195984	0
72.2302	-0.0185807	-0.195984	0
72.2312	-0.0197071	-0.19598	0
72.232	-0.0208908	-0.195982	0
72.233	-0.0221127	-0.195982	0
72.2338	-0.0231818	-0.195985	0
72.2346	-0.0243273	-0.195978	0
72.2356	-0.0255683	-0.195983	0
72.2364	-0.0265993	-0.195981	0
72.2374	-0.0277639	-0.195983	0
72.2384	-0.0290048	-0.195984	0
72.2394	-0.0301885	-0.195987	0
72.2404	-0.0312195	-0.195985	0
72.2414	-0.0324032	-0.195982	0
72.2424	-0.033606	-0.195989	0
72.2434	-0.0346942	-0.195982	0
72.2446	-0.0359925	-0.195974	0
72.2456	-0.0371189	-0.19598	0
72.2466	-0.0381308	-0.195984	0
72.2478	-0.0392381	-0.195987	0
72.2488	-0.0403645	-0.19598	0
72.25	-0.0416055	-0.19598	0
72.251	-0.0426556	-0.19598	0
72.2522	-0.0437629	-0.195984	0
72.2534	-0.0449848	-0.195985	0
72.2546	-0.0460157	-0.19598	0
72.256	-0.0472185	-0.195978	0
72.2572	-0.0482877	-0.195984	0
72.2584	-0.0493377	-0.19598	0
72.2596	-0.0504259	-0.195982	0
72.261	-0.0515715	-0.195983	0
72.2622	-0.0526215	-0.195978	0
72.2636	-0.0537861	-0.19598	0
72.265	-0.0548553	-0.195981	0
72.2664	-0.0560008	-0.195983	0
72.268	-0.0571272	-0.195983	0
72.2694	-0.0581773	-0.195985	0
72.2708	-0.059361	-0.195982	0
72.2724	-0.0603919	-0.195983	0
72.2738	-0.0614229	-0.195979	0
72.2756	-0.0627211	-0.195989	0
72.2774	-0.0638666	-0.195982	0
72.2792	-0.0649358	-0.195986	0
72.281	-0.0660813	-0.195982	0
72.2828	-0.0671695	-0.195987	0
72.2844	-0.0682196	-0.195982	0
72.2864	-0.0692887	-0.195987	0
72.2882	-0.0703579	-0.195978	0
72.2902	-0.0713698	-0.195986	0
72.292	-0.0724007	-0.19598	0
72.2942	-0.0735081	-0.195982	0
72.2964	-0.0745772	-0.195984	0
72.2986	-0.0756845	-0.195977	0
72.301	-0.0768491	-0.195984	0
72.3038	-0.0779183	-0.19598	0
72.3058	-0.0789492	-0.195978	0
72.3082	-0.0799611	-0.195983	0
72.311	-0.0810684	-0.195984	0
72.3136	-0.0821758	-0.19598	0
72.3166	-0.0831876	-0.195983	0
72.3196	-0.0843904	-0.195983	0
72.3226	-0.0854214	-0.195987	0
72.3256	-0.0864905	-0.195983	0
72.3288	-0.0875024	-0.195982	0
72.3324	-0.0885525	-0.19598	0
72.336	-0.0896025	-0.195983	0
72.3396	-0.0906144	-0.195983	0
72.3434	-0.0916454	-0.195987	0
72.3474	-0.0926763	-0.195981	0
72.3512	-0.0936882	-0.19598	0
72.3554	-0.0947001	-0.195984	0
72.36	-0.095731	-0.195989	0
72.3648	-0.0968383	-0.195978	0
72.3702	-0.0978693	-0.195981	0
72.375	-0.0989003	-0.195985	0
72.3806	-0.0999694	-0.195986	0
72.3858	-0.100981	-0.195989	0
72.392	-0.101993	-0.195982	0
72.3986	-0.103062	-0.195982	0
72.4044	-0.104093	-0.195981	0
72.4114	-0.105143	-0.195985	0
72.4194	-0.106251	-0.195981	0
72.4272	-0.10732	-0.195985	0
72.4352	-0.108351	-0.195981	0
72.4438	-0.109439	-0.19599	0
72.4526	-0.110527	-0.195985	0
72.4622	-0.111558	-0.195986	0
72.4716	-0.112608	-0.195982	0
72.4814	-0.11362	-0.195987	0
72.4918	-0.11467	-0.195985	0
72.5028	-0.115682	-0.195989	0
72.5146	-0.116732	-0.19598	0
72.5262	-0.117782	-0.195974	0
72.5388	-0.118832	-0.195984	0
72.5526	-0.119863	-0.19598	0
72.5646	-0.120875	-0.195975	0
72.5782	-0.121944	-0.195985	0
72.593	-0.123032	-0.195983	0
72.6082	-0.124063	-0.195982	0
72.6228	-0.125075	-0.195984	0
72.6394	-0.126087	-0.195985	0
72.6532	-0.127118	-0.195984	0
72.6704	-0.12813	-0.195987	0
72.6872	-0.129142	-0.195983	0
72.704	-0.13023	-0.195983	0
72.7236	-0.13128	-0.195986	0
72.7414	-0.132292	-0.195988	0
72.7582	-0.133304	-0.195982	0
72.7782	-0.134335	-0.195988	0
72.7964	-0.135404	-0.195984	0
72.818	-0.136454	-0.195982	0
72.8406	-0.137523	-0.195982	0
72.8612	-0.138535	-0.195982	0
72.882	-0.139566	-0.195982	0
72.8998	-0.140578	-0.195983	0
72.9242	-0.141609	-0.195989	0
72.9472	-0.142621	-0.19599	0
72.9706	-0.143633	-0.195985	0
72.9938	-0.144644	-0.19599	0
73.018	-0.145675	-0.195979	0
73.0422	-0.146687	-0.195983	0
73.068	-0.147718	-0.195989	0
73.0926	-0.14873	-0.195983	0
73.1204	-0.149799	-0.195988	0
73.1512	-0.150888	-0.195978	0
73.1822	-0.151918	-0.195989	0
73.2124	-0.15293	-0.195977	0
73.2446	-0.153999	-0.195985	0
73.2806	-0.15503	-0.195983	0
73.3208	-0.156042	-0.195987	0
73.36	-0.157054	-0.195978	0
73.403	-0.158066	-0.19598	0
73.4606	-0.159078	-0.195987	0
73.529	-0.160109	-0.195983	0
73.8852	-0.159078	-0.195985	0
73.9644	-0.158066	-0.195984	0
74.0248	-0.157054	-0.195984	0
74.0856	-0.156004	-0.195981	0
74.1542	-0.154992	-0.195982	0
74.2142	-0.153961	-0.195986	0
74.2756	-0.152949	-0.195985	0
74.3396	-0.151938	-0.195985	0
74.3952	-0.150907	-0.195986	0
74.4724	-0.149857	-0.195989	0
74.5434	-0.148845	-0.195981	0
74.6216	-0.147833	-0.195988	0
74.7086	-0.146821	-0.19598	0
74.7998	-0.14579	-0.195989	0
74.9008	-0.144702	-0.195986	0
75.0178	-0.143652	-0.195985	0
75.1426	-0.14264	-0.195985	0
75.2716	-0.141609	-0.195984	0
75.4346	-0.140597	-0.195986	0
75.604	-0.139585	-0.195988	0
75.808	-0.138573	-0.195983	0
76.0522	-0.137523	-0.195981	0
76.3122	-0.136511	-0.195988	0
76.672	-0.13548	-0.195985	0
77.0954	-0.134468	-0.195982	0
77.5956	-0.133457	-0.195982	0
78.2406	-0.132445	-0.195992	0
79.1296	-0.131433	-0.195987	0
80.3752	-0.130421	-0.195992	0
82.1026	-0.129409	-0.195989	0
84.4736	-0.128359	-0.195992	0
88.6256	-0.127347	-0.195985	0
94.3994	-0.126335	-0.195982	0
102.287	-0.125323	-0.195989	0
112.287	-0.124579	-0.195987	0
122.287	-0.123777	-0.195986	0
132.287	-0.123109	-0.195985	0
142.287	-0.122345	-0.195987	0
152.287	-0.121772	-0.195989	0
162.287	-0.121142	-0.195983	0
172.287	-0.120646	-0.195989	0
182.287	-0.119997	-0.195986	0
192.287	-0.119424	-0.195996	0
202.287	-0.118813	-0.195988	0
212.287	-0.11845	-0.195992	0
222.287	-0.117897	-0.19599	0
232.287	-0.117324	-0.195991	0
242.287	-0.116828	-0.195987	0
252.287	-0.116408	-0.195985	0
262.287	-0.115968	-0.195987	0
272.287	-0.115491	-0.19599	0
282.287	-0.115052	-0.195985	0
292.287	-0.114479	-0.195988	0
302.287	-0.114059	-0.195988	0
312.287	-0.113677	-0.195983	0
322.287	-0.113296	-0.195987	0
332.287	-0.112876	-0.19599	0
342.287	-0.112456	-0.195982	0
352.287	-0.112188	-0.195989	0
362.287	-0.111711	-0.195984	0
372.287	-0.111253	-0.195982	0
382.287	-0.111043	-0.195986	0
392.287	-0.110642	-0.195991	0
402.287	-0.110375	-0.195987	0
412.287	-0.109878	-0.195989	0
422.287	-0.109649	-0.195989	0
432.287	-0.109305	-0.19599	0
442.287	-0.108771	-0.19599	0
452.287	-0.108637	-0.195989	0
462.287	-0.108255	-0.195992	0
472.287	-0.107873	-0.19599	0
482.287	-0.107587	-0.195983	0
492.287	-0.107377	-0.195983	0
502.287	-0.10711	-0.195983	0
512.287	-0.106766	-0.195988	0
522.287	-0.106556	-0.195984	0
532.287	-0.106308	-0.195991	0
542.287	-0.106079	-0.195987	0
552.287	-0.105831	-0.195987	0
562.287	-0.105411	-0.195989	0
572.287	-0.105239	-0.195989	0
582.287	-0.10501	-0.195983	0
592.287	-0.104628	-0.195983	0
602.287	-0.104628	-0.195989	0
612.287	-0.104399	-0.195986	0
622.287	-0.104131	-0.195985	0
632.287	-0.103826	-0.195991	0
642.287	-0.103807	-0.195983	0
652.287	-0.103616	-0.195989	0
662.287	-0.103291	-0.195996	0
672.287	-0.103024	-0.19598	0
682.287	-0.102757	-0.195983	0
692.287	-0.102757	-0.195989	0
702.287	-0.102509	-0.195983	0
712.287	-0.10228	-0.19599	0
722.287	-0.102222	-0.195982	0
732.287	-0.101955	-0.195987	0
742.287	-0.101917	-0.195988	0
752.287	-0.10163	-0.195993	0
762.287	-0.101535	-0.195985	0
772.287	-0.101306	-0.19598	0
782.287	-0.101058	-0.195983	0
792.287	-0.101058	-0.195984	0
802.287	-0.100829	-0.195986	0
812.287	-0.100599	-0.19599	0
822.287	-0.100466	-0.195987	0
832.287	-0.100294	-0.195988	0
842.287	-0.100141	-0.195985	0
852.287	-0.0999885	-0.195985	0
862.287	-0.0999121	-0.195991	0
872.287	-0.0997212	-0.195987	0
882.287	-0.0995303	-0.19599	0
892.287	-0.0994158	-0.195983	0
902.287	-0.0991676	-0.195987	0
912.287	-0.0990721	-0.195992	0
922.287	-0.0988048	-0.195989	0
932.287	-0.0985566	-0.19599	0
942.287	-0.0986521	-0.195988	0
952.287	-0.0984612	-0.195987	0
962.287	-0.0983275	-0.195985	0
972.287	-0.0980984	-0.19599	0
982.287	-0.0980793	-0.195989	0
992.287	-0.0979266	-0.195984	0
1002.29	-0.0977548	-0.195985	0
1012.29	-0.0976402	-0.195989	0
1022.29	-0.0975447	-0.19599	0
1032.29	-0.0975447	-0.195987	0
1042.29	-0.0971056	-0.195988	0
1052.29	-0.0970102	-0.195988	0
1062.29	-0.0969147	-0.19599	0
1072.29	-0.0966474	-0.195983	0
1082.29	-0.0966092	-0.19599	0
1092.29	-0.0965329	-0.195987	0
1102.29	-0.0964374	-0.195987	0
1112.29	-0.096342	-0.195988	0
1122.29	-0.0960938	-0.195989	0
1132.29	-0.0959219	-0.195992	0
1142.29	-0.0958265	-0.195987	0
1152.29	-0.0957501	-0.195992	0
1162.29	-0.0956165	-0.19599	0
1172.29	-0.0955401	-0.195987	0
1182.29	-0.0953492	-0.195992	0
1192.29	-0.095311	-0.195982	0
1202.29	-0.0952155	-0.195986	0
1212.29	-0.0950246	-0.195985	0
1222.29	-0.0949864	-0.195989	0
1232.29	-0.0947001	-0.195993	0
1242.29	-0.0947191	-0.195985	0
1252.29	-0.0944137	-0.195993	0
1262.29	-0.0944137	-0.195985	0
1272.29	-0.0943755	-0.19599	0
1282.29	-0.0942228	-0.195979	0
1292.29	-0.0941082	-0.195987	0
1302.29	-0.0940127	-0.195986	0
1312.29	-0.0939746	-0.195987	0
1322.29	-0.0938027	-0.195983	0
1332.29	-0.0936882	-0.195988	0
1342.29	-0.0934782	-0.195986	0
1352.29	-0.0932873	-0.19599	0
1362.29	-0.09323	-0.195987	0
1372.29	-0.0930963	-0.195988	0
1382.29	-0.0930391	-0.195983	0
1392.29	-0.0929436	-0.195991	0
1402.29	-0.0928481	-0.195986	0
1412.29	-0.0927718	-0.195985	0
1422.29	-0.0925809	-0.195987	0
1432.29	-0.0925236	-0.195988	0
1442.29	-0.0923899	-0.195989	0
1452.29	-0.0922754	-0.195984	0
1462.29	-0.0922754	-0.195988	0
1472.29	-0.0920845	-0.195985	0
1482.29	-0.091989	-0.195987	0
1492.29	-0.091989	-0.195989	0
1502.29	-0.091779	-0.195989	0
1512.29	-0.0917026	-0.195984	0
1522.29	-0.0916263	-0.195989	0
1532.29	-0.0916263	-0.195986	0
1542.29	-0.0914735	-0.195988	0
1552.29	-0.091359	-0.195985	0
1562.29	-0.0912826	-0.195986	0
1572.29	-0.0910726	-0.195985	0
1582.29	-0.0910535	-0.195984	0
1592.29	-0.0909771	-0.195985	0
1602.29	-0.0907862	-0.195982	0
1612.29	-0.0907289	-0.195993	0
1622.29	-0.0905953	-0.195982	0
1632.29	-0.0905953	-0.195986	0
1642.29	-0.0905571	-0.195991	0
1652.29	-0.090328	-0.195987	0
1662.29	-0.0903471	-0.195987	0
1672.29	-0.0901562	-0.195987	0
1682.29	-0.0900607	-0.195992	0
1692.29	-0.0900034	-0.19599	0
1702.29	-0.0898507	-0.195991	0
1712.29	-0.0897934	-0.195987	0
1722.29	-0.0896216	-0.195984	0
1732.29	-0.0895834	-0.195987	0
1742.29	-0.0895262	-0.195988	0
1752.29	-0.0895071	-0.195984	0
1762.29	-0.0894116	-0.19599	0
1772.29	-0.0891825	-0.195986	0
1782.29	-0.0892398	-0.195989	0
1792.29	-0.0891443	-0.195987	0
1802.29	-0.0890679	-0.195981	0
1812.29	-0.0889152	-0.195994	0
1822.29	-0.0888388	-0.195987	0
1832.29	-0.0887434	-0.195987	0
1842.29	-0.0886479	-0.195981	0
1852.29	-0.0885143	-0.195991	0
1862.29	-0.0885525	-0.195986	0
1872.21	-0.0883425	-0.195983	0