File: EXPERIMENTAL/DATA/Electrochemical-cycling/S-series/2024-07-02_S23_Icell_t0000_C0050_J01_deltaX-109,9mm_LFP_02_CP_C06.txt
time/s	Ewe/V	I/mA	error
60.0524	-0.296449	-0.619449	0
60.0528	-0.351792	-0.774975	0
60.0532	-0.39429	-0.778698	0
60.0536	-0.429973	-0.779888	0
60.054	-0.460501	-0.780646	0
60.0544	-0.487019	-0.78125	0
60.0548	-0.51014	-0.781632	0
60.0552	-0.53053	-0.781944	0
60.0556	-0.548534	-0.782326	0
60.056	-0.564838	-0.782555	0
60.0564	-0.579329	-0.782759	0
60.0568	-0.592731	-0.782937	0
60.0572	-0.605046	-0.783141	0
60.0576	-0.616023	-0.783281	0
60.058	-0.626505	-0.783395	0
60.0584	-0.635974	-0.783497	0
60.0588	-0.644928	-0.78358	0
60.0592	-0.653214	-0.783726	0
60.0596	-0.660927	-0.783822	0
60.06	-0.668259	-0.783904	0
60.0604	-0.674826	-0.783923	0
60.0608	-0.681585	-0.784025	0
60.0612	-0.687561	-0.784082	0
60.0616	-0.693231	-0.784095	0
60.062	-0.698768	-0.784191	0
60.0624	-0.70398	-0.784178	0
60.0628	-0.708886	-0.784121	0
60.0632	-0.713526	-0.784197	0
60.0636	-0.718089	-0.784261	0
60.064	-0.722384	-0.784286	0
60.0644	-0.726508	-0.784331	0
60.0648	-0.730613	-0.784356	0
60.0652	-0.734431	-0.784369	0
60.0656	-0.738059	-0.784382	0
60.066	-0.741495	-0.784471	0
60.0664	-0.745065	-0.784496	0
60.0668	-0.748292	-0.784483	0
60.0672	-0.751557	-0.78449	0
60.0676	-0.754726	-0.784483	0
60.068	-0.757685	-0.784407	0
60.0684	-0.760625	-0.784547	0
60.0688	-0.763546	-0.784503	0
60.0692	-0.766257	-0.784509	0
60.0696	-0.769083	-0.784566	0
60.07	-0.771718	-0.784649	0
60.0704	-0.774295	-0.784585	0
60.0708	-0.776758	-0.784573	0
60.0712	-0.779412	-0.784655	0
60.0716	-0.781798	-0.784554	0
60.072	-0.784242	-0.784573	0
60.0724	-0.786419	-0.784617	0
60.0728	-0.788843	-0.784623	0
60.0732	-0.791268	-0.784687	0
60.0738	-0.79438	-0.784655	0
60.0742	-0.796728	-0.784643	0
60.0746	-0.799	-0.7847	0
60.0752	-0.802055	-0.784662	0
60.0756	-0.804212	-0.784598	0
60.0762	-0.807229	-0.7847	0
60.077	-0.811314	-0.784713	0
60.0776	-0.814255	-0.784713	0
60.0782	-0.817176	-0.784687	0
60.079	-0.820937	-0.784757	0
60.0798	-0.824698	-0.784732	0
60.0806	-0.828402	-0.784693	0
60.0814	-0.832048	-0.784808	0
60.0822	-0.835599	-0.784757	0
60.0828	-0.838291	-0.784744	0
60.0836	-0.841728	-0.784789	0
60.0844	-0.845279	-0.78477	0
60.0852	-0.848677	-0.784808	0
60.086	-0.852037	-0.7847	0
60.0868	-0.855455	-0.784738	0
60.0876	-0.858815	-0.784776	0
60.0884	-0.862099	-0.784757	0
60.0892	-0.865306	-0.784738	0
60.09	-0.868609	-0.784795	0
60.0908	-0.871778	-0.784808	0
60.0916	-0.875081	-0.78477	0
60.0924	-0.878365	-0.784846	0
60.0932	-0.881324	-0.784732	0
60.094	-0.884494	-0.784846	0
60.0948	-0.887625	-0.784814	0
60.0956	-0.890603	-0.784789	0
60.0964	-0.893753	-0.784757	0
60.0972	-0.89677	-0.78484	0
60.098	-0.899824	-0.784789	0
60.0988	-0.902994	-0.784802	0
60.0996	-0.905877	-0.784808	0
60.1004	-0.908912	-0.78477	0
60.1012	-0.911852	-0.784802	0
60.102	-0.914678	-0.784821	0
60.1028	-0.917733	-0.784884	0
60.1036	-0.920654	-0.784827	0
60.1044	-0.923479	-0.784821	0
60.1052	-0.926458	-0.784789	0
60.106	-0.929188	-0.784757	0
60.1068	-0.932032	-0.784821	0
60.1076	-0.934877	-0.784783	0
60.1084	-0.937894	-0.784891	0
60.1092	-0.940566	-0.784814	0
60.11	-0.943316	-0.784808	0
60.1108	-0.94616	-0.784808	0
60.1116	-0.94891	-0.78484	0
60.1124	-0.951659	-0.784821	0
60.1132	-0.954408	-0.784859	0
60.114	-0.957157	-0.784872	0
60.1148	-0.959716	-0.784808	0
60.1156	-0.962484	-0.784802	0
60.1164	-0.965176	-0.784859	0
60.1172	-0.967715	-0.784814	0
60.118	-0.970483	-0.784865	0
60.1188	-0.973156	-0.784802	0
60.1196	-0.975676	-0.784833	0
60.1204	-0.978235	-0.78484	0
60.1212	-0.980869	-0.784865	0
60.122	-0.983447	-0.784872	0
60.1228	-0.986101	-0.784872	0
60.1236	-0.988583	-0.784923	0
60.1244	-0.991103	-0.78484	0
60.1252	-0.993718	-0.78484	0
60.126	-0.996086	-0.784859	0
60.1268	-0.998663	-0.784846	0
60.1276	-1.00107	-0.78484	0
60.1284	-1.00363	-0.784814	0
60.1292	-1.00607	-0.784884	0
60.13	-1.00851	-0.784891	0
60.1308	-1.01082	-0.784872	0
60.1316	-1.01338	-0.784865	0
60.1324	-1.0156	-0.784865	0
60.1332	-1.01818	-0.784865	0
60.134	-1.02047	-0.784846	0
60.1348	-1.02276	-0.784859	0
60.1356	-1.02526	-0.78477	0
60.1364	-1.02761	-0.784846	0
60.1372	-1.03001	-0.784872	0
60.1382	-1.03289	-0.784846	0
60.139	-1.03515	-0.784884	0
60.1398	-1.03746	-0.784878	0
60.1406	-1.03973	-0.784872	0
60.1414	-1.04208	-0.784916	0
60.1424	-1.0449	-0.784878	0
60.1432	-1.04719	-0.784853	0
60.144	-1.04947	-0.784764	0
60.1448	-1.05164	-0.784865	0
60.1456	-1.05391	-0.784903	0
60.1464	-1.05624	-0.784846	0
60.1472	-1.05846	-0.784878	0
60.148	-1.06056	-0.784865	0
60.1488	-1.06291	-0.784903	0
60.1496	-1.06514	-0.78484	0
60.1504	-1.06726	-0.784814	0
60.1514	-1.07003	-0.784897	0
60.1522	-1.07224	-0.784865	0
60.153	-1.07442	-0.784853	0
60.154	-1.07709	-0.784859	0
60.1548	-1.07931	-0.784783	0
60.1556	-1.08154	-0.784853	0
60.1566	-1.08408	-0.784821	0
60.1576	-1.08689	-0.78484	0
60.1584	-1.08899	-0.784795	0
60.1594	-1.09168	-0.784846	0
60.1606	-1.09485	-0.784846	0
60.1616	-1.09733	-0.78491	0
60.1624	-1.09956	-0.784891	0
60.1634	-1.10222	-0.784891	0
60.1644	-1.10464	-0.784846	0
60.1654	-1.1072	-0.784846	0
60.1664	-1.10987	-0.784833	0
60.1674	-1.11253	-0.784853	0
60.1686	-1.11554	-0.784859	0
60.1696	-1.11803	-0.784878	0
60.1706	-1.12058	-0.784878	0
60.1714	-1.12268	-0.784865	0
60.1724	-1.12509	-0.784903	0
60.1732	-1.12715	-0.784878	0
60.1742	-1.12956	-0.784961	0
60.1754	-1.13265	-0.784865	0
60.1766	-1.13565	-0.784891	0
60.1776	-1.13798	-0.784903	0
60.1786	-1.14042	-0.784853	0
60.1796	-1.143	-0.784916	0
60.1806	-1.14538	-0.784903	0
60.1816	-1.14785	-0.784903	0
60.1828	-1.15067	-0.784929	0
60.184	-1.15356	-0.784884	0
60.185	-1.1559	-0.784903	0
60.186	-1.1582	-0.784833	0
60.187	-1.16056	-0.784878	0
60.188	-1.16304	-0.784897	0
60.1892	-1.16576	-0.784853	0
60.1904	-1.16854	-0.784833	0
60.1916	-1.17133	-0.784916	0
60.1928	-1.17419	-0.784954	0
60.194	-1.17679	-0.784859	0
60.195	-1.17925	-0.784897	0
60.1962	-1.18189	-0.784846	0
60.1974	-1.18475	-0.784853	0
60.1986	-1.18741	-0.784897	0
60.1998	-1.19	-0.784865	0
60.2008	-1.19233	-0.784872	0
60.202	-1.1951	-0.784865	0
60.2032	-1.19772	-0.784903	0
60.2044	-1.20024	-0.784827	0
60.2056	-1.20308	-0.784846	0
60.2068	-1.2057	-0.784884	0
60.2078	-1.20791	-0.784891	0
60.209	-1.21039	-0.784891	0
60.2102	-1.21299	-0.784878	0
60.2114	-1.2157	-0.784916	0
60.2126	-1.21824	-0.784929	0
60.2138	-1.2208	-0.784853	0
60.215	-1.22332	-0.784929	0
60.2162	-1.22591	-0.784897	0
60.2174	-1.22843	-0.784846	0
60.2186	-1.23097	-0.78491	0
60.2198	-1.23347	-0.78484	0
60.221	-1.23598	-0.784897	0
60.2222	-1.23846	-0.784929	0
60.2234	-1.241	-0.784859	0
60.2246	-1.24344	-0.784923	0
60.2258	-1.2459	-0.784903	0
60.227	-1.24825	-0.784929	0
60.2282	-1.25077	-0.784891	0
60.2294	-1.25329	-0.784878	0
60.2306	-1.25549	-0.784891	0
60.2318	-1.2581	-0.784821	0
60.233	-1.26045	-0.784891	0
60.2342	-1.26272	-0.784897	0
60.2354	-1.26511	-0.784903	0
60.2366	-1.26746	-0.784897	0
60.2378	-1.26977	-0.784954	0
60.239	-1.27227	-0.784884	0
60.2404	-1.27488	-0.784929	0
60.2416	-1.2771	-0.784891	0
60.2428	-1.27943	-0.784891	0
60.244	-1.28172	-0.784961	0
60.2452	-1.2839	-0.784923	0
60.2464	-1.2863	-0.784954	0
60.2476	-1.28848	-0.784929	0
60.2488	-1.29083	-0.784916	0
60.2502	-1.29331	-0.784878	0
60.2514	-1.29554	-0.784916	0
60.2526	-1.29768	-0.784935	0
60.2538	-1.29988	-0.784859	0
60.255	-1.30203	-0.784923	0
60.2564	-1.30459	-0.78491	0
60.2578	-1.30707	-0.784948	0
60.259	-1.30914	-0.784884	0
60.2604	-1.3116	-0.784935	0
60.2616	-1.31374	-0.784929	0
60.263	-1.3161	-0.784891	0
60.2644	-1.31861	-0.785037	0
60.2658	-1.32101	-0.784846	0
60.2672	-1.32336	-0.784853	0
60.2686	-1.32569	-0.784903	0
60.2698	-1.32781	-0.784903	0
60.2712	-1.3301	-0.784954	0
60.2726	-1.33252	-0.784903	0
60.274	-1.33483	-0.784929	0
60.2756	-1.33739	-0.784872	0
60.277	-1.33972	-0.784884	0
60.2786	-1.34241	-0.784903	0
60.2802	-1.34486	-0.78491	0
60.2816	-1.34719	-0.784942	0
60.283	-1.34932	-0.784942	0
60.2844	-1.35156	-0.784846	0
60.286	-1.35406	-0.784954	0
60.2874	-1.35633	-0.784916	0
60.289	-1.35864	-0.784923	0
60.2906	-1.36124	-0.784986	0
60.2922	-1.36353	-0.784929	0
60.2938	-1.36609	-0.784859	0
60.2954	-1.36853	-0.784929	0
60.297	-1.37086	-0.784967	0
60.2986	-1.3733	-0.784897	0
60.3002	-1.37559	-0.784935	0
60.3018	-1.37796	-0.784929	0
60.3034	-1.38029	-0.784903	0
60.305	-1.38275	-0.784961	0
60.3066	-1.38504	-0.784916	0
60.3082	-1.38732	-0.784923	0
60.3098	-1.38959	-0.784916	0
60.3114	-1.39188	-0.78491	0
60.313	-1.39413	-0.784923	0
60.3146	-1.39642	-0.784967	0
60.3162	-1.39873	-0.784942	0
60.3178	-1.40087	-0.784916	0
60.3194	-1.40305	-0.784923	0
60.321	-1.40536	-0.784999	0
60.3228	-1.40784	-0.78484	0
60.3246	-1.41025	-0.784948	0
60.3262	-1.41242	-0.784942	0
60.3278	-1.41469	-0.784897	0
60.3294	-1.41679	-0.784897	0
60.331	-1.41889	-0.784935	0
60.3326	-1.42101	-0.784929	0
60.3344	-1.42352	-0.784954	0
60.336	-1.42563	-0.784948	0
60.3376	-1.42773	-0.784942	0
60.3392	-1.42995	-0.784897	0
60.3408	-1.43201	-0.784853	0
60.3424	-1.43419	-0.78491	0
60.3442	-1.43648	-0.784948	0
60.346	-1.43877	-0.78491	0
60.3476	-1.44095	-0.784916	0
60.3494	-1.44335	-0.784942	0
60.3514	-1.44595	-0.784903	0
60.3532	-1.44832	-0.78491	0
60.355	-1.45066	-0.784916	0
60.357	-1.45311	-0.784923	0
60.3586	-1.45526	-0.784948	0
60.3606	-1.45773	-0.784973	0
60.3622	-1.45979	-0.784954	0
60.364	-1.46204	-0.784986	0
60.3658	-1.46443	-0.784923	0
60.3678	-1.46685	-0.784967	0
60.3694	-1.46897	-0.784954	0
60.371	-1.47102	-0.784942	0
60.3728	-1.47342	-0.784993	0
60.3746	-1.4755	-0.784859	0
60.3762	-1.47764	-0.78498	0
60.3782	-1.48008	-0.784942	0
60.3802	-1.48257	-0.784929	0
60.382	-1.4848	-0.784961	0
60.3838	-1.48705	-0.784999	0
60.3858	-1.48961	-0.784935	0
60.3876	-1.49186	-0.784954	0
60.3894	-1.49406	-0.784973	0
60.3912	-1.49626	-0.784961	0
60.3932	-1.49881	-0.78498	0
60.395	-1.50097	-0.784872	0
60.3968	-1.5033	-0.784993	0
60.3986	-1.5055	-0.78498	0
60.4006	-1.5079	-0.784942	0
60.4024	-1.51012	-0.784923	0
60.4042	-1.51235	-0.784935	0
60.406	-1.5146	-0.785005	0
60.4078	-1.51686	-0.78491	0
60.4096	-1.51909	-0.784935	0
60.4116	-1.52153	-0.784948	0
60.4134	-1.52375	-0.784942	0
60.4154	-1.52615	-0.784923	0
60.4174	-1.52871	-0.784872	0
60.4192	-1.53081	-0.784954	0
60.421	-1.53306	-0.784897	0
60.423	-1.53549	-0.784967	0
60.4248	-1.5377	-0.78491	0
60.4268	-1.54017	-0.785018	0
60.4288	-1.54271	-0.784948	0
60.4308	-1.54507	-0.78498	0
60.4326	-1.54723	-0.78498	0
60.4344	-1.5495	-0.785018	0
60.4362	-1.55168	-0.784986	0
60.438	-1.55386	-0.784948	0
60.4398	-1.55618	-0.784954	0
60.4416	-1.5583	-0.784999	0
60.4436	-1.56082	-0.785018	0
60.4454	-1.56298	-0.784916	0
60.447	-1.56506	-0.784967	0
60.449	-1.56732	-0.784993	0
60.4508	-1.56961	-0.784916	0
60.4528	-1.57199	-0.784967	0
60.4544	-1.57407	-0.784999	0
60.4562	-1.57617	-0.784961	0
60.458	-1.57843	-0.78498	0
60.46	-1.58087	-0.784967	0
60.4618	-1.58301	-0.78491	0
60.4634	-1.58507	-0.784891	0
60.4652	-1.58721	-0.784942	0
60.467	-1.58948	-0.784929	0
60.4688	-1.59164	-0.785024	0
60.4708	-1.5941	-0.784903	0
60.4724	-1.59614	-0.784986	0
60.4744	-1.59853	-0.784948	0
60.4764	-1.60094	-0.784923	0
60.4784	-1.60334	-0.784935	0
60.4802	-1.60558	-0.784923	0
60.482	-1.60781	-0.784923	0
60.4838	-1.60993	-0.78491	0
60.4856	-1.6121	-0.784954	0
60.4876	-1.61451	-0.784961	0
60.4894	-1.61674	-0.78498	0
60.4912	-1.61898	-0.784999	0
60.4932	-1.62138	-0.784929	0
60.495	-1.6236	-0.784967	0
60.497	-1.62593	-0.784961	0
60.499	-1.62839	-0.78498	0
60.501	-1.63091	-0.784961	0
60.503	-1.63337	-0.784993	0
60.505	-1.63568	-0.784986	0
60.507	-1.63797	-0.784929	0
60.5088	-1.64023	-0.78498	0
60.5108	-1.64261	-0.784948	0
60.5128	-1.64494	-0.784923	0
60.5148	-1.64731	-0.784929	0
60.5166	-1.64954	-0.78491	0
60.5184	-1.65172	-0.784942	0
60.5204	-1.65411	-0.784986	0
60.5224	-1.65647	-0.78498	0
60.5242	-1.65867	-0.785005	0
60.5262	-1.661	-0.78498	0
60.5282	-1.66333	-0.784872	0
60.53	-1.66541	-0.78498	0
60.5318	-1.66766	-0.784967	0
60.5338	-1.66999	-0.78491	0
60.5358	-1.67236	-0.784872	0
60.5378	-1.67465	-0.784897	0
60.5398	-1.677	-0.784923	0
60.5418	-1.67944	-0.785012	0
60.5438	-1.68168	-0.785012	0
60.5456	-1.68381	-0.784884	0
60.5474	-1.68599	-0.784954	0
60.5494	-1.68813	-0.78498	0
60.5512	-1.69025	-0.784884	0
60.5532	-1.6925	-0.784929	0
60.5552	-1.69481	-0.784973	0
60.5572	-1.69706	-0.784948	0
60.5592	-1.69937	-0.784923	0
60.5612	-1.70165	-0.785037	0
60.5634	-1.70417	-0.784935	0
60.5654	-1.70634	-0.784961	0
60.5674	-1.70863	-0.785031	0
60.5694	-1.71091	-0.784923	0
60.5714	-1.71314	-0.784935	0
60.5734	-1.71524	-0.784993	0
60.5754	-1.71745	-0.784967	0
60.5774	-1.71965	-0.784948	0
60.5794	-1.72194	-0.78491	0
60.5814	-1.724	-0.784903	0
60.5836	-1.72647	-0.784967	0
60.5856	-1.7287	-0.784993	0
60.5876	-1.73086	-0.784999	0
60.5898	-1.73324	-0.78491	0
60.5918	-1.73546	-0.784973	0
60.594	-1.73777	-0.784986	0
60.596	-1.73991	-0.784942	0
60.598	-1.74204	-0.784942	0
60.6	-1.7442	-0.784923	0
60.602	-1.74636	-0.784961	0
60.6042	-1.74869	-0.785012	0
60.6062	-1.75077	-0.784993	0
60.6082	-1.75291	-0.784903	0
60.6102	-1.75497	-0.78498	0
60.6122	-1.75707	-0.785018	0
60.6142	-1.75919	-0.784986	0
60.6164	-1.76142	-0.784999	0
60.6184	-1.76356	-0.78498	0
60.6204	-1.76574	-0.784993	0
60.6226	-1.76789	-0.785024	0
60.6248	-1.77013	-0.785018	0
60.627	-1.77251	-0.784973	0
60.6292	-1.77469	-0.784948	0
60.6312	-1.77679	-0.784916	0
60.6336	-1.77927	-0.784993	0
60.6358	-1.78141	-0.784942	0
60.638	-1.78355	-0.784923	0
60.64	-1.78571	-0.785005	0
60.6422	-1.78783	-0.784935	0
60.6444	-1.79008	-0.785005	0
60.6466	-1.79224	-0.784961	0
60.649	-1.7946	-0.784903	0
60.6512	-1.79682	-0.784973	0
60.6534	-1.79901	-0.784961	0
60.6558	-1.80115	-0.784897	0
60.6578	-1.80325	-0.784999	0
60.66	-1.80545	-0.784961	0
60.6624	-1.80764	-0.784948	0
60.6646	-1.80986	-0.785012	0
60.6668	-1.81198	-0.784897	0
60.6692	-1.81421	-0.784942	0
60.6716	-1.81645	-0.784954	0
60.674	-1.81872	-0.785018	0
60.6764	-1.82095	-0.784961	0
60.6786	-1.82309	-0.784929	0
60.681	-1.82525	-0.785024	0
60.6834	-1.8275	-0.784878	0
60.6858	-1.82973	-0.784903	0
60.6882	-1.83187	-0.784954	0
60.6908	-1.83424	-0.784961	0
60.6932	-1.83638	-0.784942	0
60.6956	-1.83852	-0.785018	0
60.698	-1.84067	-0.784954	0
60.7006	-1.84296	-0.785024	0
60.703	-1.84512	-0.784999	0
60.7056	-1.84739	-0.784986	0
60.708	-1.84951	-0.784916	0
60.7108	-1.8518	-0.784948	0
60.7132	-1.85398	-0.784967	0
60.716	-1.85633	-0.784967	0
60.7186	-1.8585	-0.784897	0
60.7214	-1.8608	-0.785005	0
60.724	-1.86295	-0.785005	0
60.7266	-1.86509	-0.784961	0
60.7292	-1.86725	-0.785031	0
60.732	-1.86958	-0.784993	0
60.7348	-1.87177	-0.78498	0
60.7374	-1.87382	-0.784935	0
60.74	-1.87592	-0.784929	0
60.743	-1.87823	-0.784942	0
60.7456	-1.88031	-0.784948	0
60.7482	-1.88235	-0.784986	0
60.751	-1.88455	-0.784993	0
60.7538	-1.88665	-0.78491	0
60.7566	-1.88875	-0.784935	0
60.7594	-1.8909	-0.784935	0
60.7622	-1.89304	-0.785024	0
60.7652	-1.89522	-0.785031	0
60.7682	-1.89739	-0.785063	0
60.7712	-1.89955	-0.784967	0
60.774	-1.9016	-0.784948	0
60.777	-1.90379	-0.784948	0
60.7802	-1.90606	-0.784999	0
60.7834	-1.90812	-0.784954	0
60.7864	-1.91034	-0.78498	0
60.7894	-1.91246	-0.784986	0
60.7928	-1.91462	-0.785018	0
60.7958	-1.91685	-0.784948	0
60.7994	-1.91918	-0.78498	0
60.8028	-1.92134	-0.784942	0
60.8058	-1.9234	-0.78498	0
60.8092	-1.92567	-0.784948	0
60.8128	-1.92785	-0.784935	0
60.8162	-1.93008	-0.784973	0
60.8196	-1.93228	-0.78498	0
60.823	-1.93441	-0.785037	0
60.827	-1.93692	-0.784929	0
60.831	-1.93923	-0.784954	0
60.8344	-1.94138	-0.784961	0
60.8382	-1.94377	-0.784999	0
60.842	-1.94596	-0.785063	0
60.8454	-1.94801	-0.784961	0
60.8492	-1.95022	-0.784993	0
60.8526	-1.9523	-0.784986	0
60.8562	-1.95442	-0.78498	0
60.8598	-1.95654	-0.785005	0
60.8638	-1.95874	-0.78491	0
60.8676	-1.96103	-0.784973	0
60.8718	-1.96324	-0.784973	0
60.8754	-1.96527	-0.78498	0
60.879	-1.96739	-0.784999	0
60.883	-1.96956	-0.785005	0
60.8868	-1.9717	-0.784961	0
60.8906	-1.97378	-0.784986	0
60.8948	-1.97609	-0.785012	0
60.899	-1.97827	-0.785005	0
60.903	-1.98035	-0.784973	0
60.9068	-1.98247	-0.78498	0
60.911	-1.98463	-0.785031	0
60.9148	-1.98673	-0.784973	0
60.919	-1.98888	-0.785037	0
60.9232	-1.9911	-0.784967	0
60.9274	-1.99337	-0.785005	0
60.9318	-1.99553	-0.785043	0
60.9362	-1.99778	-0.78498	0
60.9404	-1.99986	-0.784993	0
60.9446	-2.00206	-0.784986	0
60.949	-2.0042	-0.785012	0
60.953	-2.00633	-0.784942	0
60.9574	-2.00845	-0.78498	0
60.9618	-2.01065	-0.784954	0
60.9658	-2.01273	-0.784903	0
60.9702	-2.01487	-0.784948	0
60.9744	-2.01693	-0.785005	0
60.9788	-2.01901	-0.784961	0
60.983	-2.02111	-0.785018	0
60.9872	-2.02329	-0.785012	0
60.9916	-2.02539	-0.785069	0
60.996	-2.02756	-0.785018	0
61.0006	-2.02976	-0.784916	0
61.005	-2.03195	-0.785012	0
61.0094	-2.03404	-0.784973	0
61.014	-2.03627	-0.784993	0
61.0186	-2.03835	-0.785012	0
61.023	-2.04045	-0.784973	0
61.0274	-2.04265	-0.784942	0
61.0322	-2.04484	-0.785005	0
61.0366	-2.04698	-0.784961	0
61.0412	-2.04921	-0.784935	0
61.0458	-2.05133	-0.784961	0
61.0502	-2.05343	-0.784993	0
61.0544	-2.05546	-0.785031	0
61.0592	-2.05769	-0.784993	0
61.0638	-2.05979	-0.785012	0
61.0682	-2.06185	-0.784967	0
61.0724	-2.06391	-0.784942	0
61.077	-2.06596	-0.785005	0
61.0816	-2.0681	-0.784999	0
61.0862	-2.07031	-0.784973	0
61.091	-2.07251	-0.785012	0
61.0956	-2.07463	-0.784961	0
61.1	-2.07669	-0.785012	0
61.1046	-2.07879	-0.785005	0
61.1094	-2.08087	-0.784999	0
61.114	-2.08308	-0.784935	0
61.1184	-2.08516	-0.784954	0
61.123	-2.08728	-0.785063	0
61.128	-2.0895	-0.784986	0
61.1328	-2.09169	-0.785043	0
61.1376	-2.09406	-0.784948	0
61.1428	-2.09631	-0.784967	0
61.1474	-2.09838	-0.784993	0
61.1522	-2.10055	-0.785043	0
61.1568	-2.10265	-0.785012	0
61.1614	-2.10469	-0.784973	0
61.1658	-2.10676	-0.785005	0
61.1706	-2.10888	-0.785056	0
61.1752	-2.11096	-0.784942	0
61.1802	-2.11323	-0.784993	0
61.1852	-2.11542	-0.784973	0
61.1898	-2.11747	-0.784961	0
61.1944	-2.11955	-0.784986	0
61.199	-2.12157	-0.784973	0
61.2034	-2.1236	-0.784986	0
61.2082	-2.12573	-0.784993	0
61.213	-2.12799	-0.785031	0
61.218	-2.13007	-0.78498	0
61.223	-2.13224	-0.784999	0
61.2276	-2.13436	-0.785005	0
61.2326	-2.1365	-0.784967	0
61.2374	-2.13866	-0.784961	0
61.2422	-2.14089	-0.784967	0
61.2474	-2.14303	-0.78498	0
61.2522	-2.14523	-0.784973	0
61.2574	-2.14742	-0.78505	0
61.2624	-2.14968	-0.784973	0
61.2672	-2.15181	-0.784986	0
61.2724	-2.15391	-0.78498	0
61.2772	-2.15603	-0.784999	0
61.282	-2.15813	-0.785031	0
61.287	-2.16025	-0.784999	0
61.292	-2.16247	-0.784967	0
61.297	-2.16462	-0.785018	0
61.302	-2.16674	-0.785024	0
61.3068	-2.16886	-0.784973	0
61.3118	-2.17106	-0.785069	0
61.317	-2.17322	-0.784967	0
61.322	-2.17528	-0.785012	0
61.3268	-2.17742	-0.784973	0
61.3316	-2.17944	-0.785012	0
61.3366	-2.18156	-0.784993	0
61.3414	-2.18362	-0.784967	0
61.3464	-2.18568	-0.784986	0
61.3516	-2.18788	-0.78498	0
61.3566	-2.18998	-0.784967	0
61.3614	-2.192	-0.784929	0
61.3666	-2.19418	-0.784993	0
61.3714	-2.1962	-0.785024	0
61.3766	-2.19834	-0.785012	0
61.3812	-2.20078	-0.785012	0
61.3862	-2.20286	-0.784954	0
61.3912	-2.2049	-0.785069	0
61.3962	-2.20711	-0.784993	0
61.4016	-2.20921	-0.784999	0
61.4064	-2.21129	-0.785005	0
61.4112	-2.21336	-0.784923	0
61.417	-2.21561	-0.785012	0
61.4222	-2.21777	-0.784967	0
61.4272	-2.21985	-0.784986	0
61.4324	-2.22193	-0.785018	0
61.4374	-2.22395	-0.785005	0
61.4426	-2.22615	-0.785005	0
61.448	-2.22831	-0.784973	0
61.4532	-2.23041	-0.78498	0
61.4584	-2.23251	-0.784961	0
61.4636	-2.23464	-0.785012	0
61.469	-2.23684	-0.784961	0
61.4746	-2.23905	-0.78505	0
61.4798	-2.24121	-0.785043	0
61.485	-2.24327	-0.785018	0
61.49	-2.24535	-0.784916	0
61.4954	-2.24751	-0.785024	0
61.501	-2.24967	-0.785018	0
61.5062	-2.25177	-0.784999	0
61.5114	-2.25389	-0.784993	0
61.5174	-2.25631	-0.784993	0
61.5228	-2.25843	-0.784993	0
61.5286	-2.26069	-0.785005	0
61.5338	-2.26271	-0.784973	0
61.5392	-2.26481	-0.78498	0
61.5446	-2.267	-0.784929	0
61.5504	-2.26926	-0.785005	0
61.5562	-2.27164	-0.784973	0
61.5618	-2.27376	-0.78491	0
61.567	-2.27594	-0.784967	0
61.573	-2.27817	-0.784961	0
61.5786	-2.28037	-0.784961	0
61.5844	-2.28264	-0.784961	0
61.5896	-2.28472	-0.784999	0
61.5952	-2.28686	-0.785037	0
61.601	-2.28908	-0.785018	0
61.6064	-2.29118	-0.78498	0
61.6118	-2.29324	-0.784961	0
61.6174	-2.29538	-0.784993	0
61.623	-2.29755	-0.78498	0
61.6288	-2.29967	-0.784954	0
61.6342	-2.30185	-0.785024	0
61.6398	-2.30397	-0.785018	0
61.6448	-2.30599	-0.785031	0
61.6506	-2.30813	-0.785005	0
61.6564	-2.31031	-0.784999	0
61.6622	-2.31252	-0.784986	0
61.6674	-2.31462	-0.78498	0
61.6734	-2.31687	-0.785012	0
61.6796	-2.31916	-0.784986	0
61.6854	-2.32121	-0.785012	0
61.6904	-2.32329	-0.785031	0
61.6966	-2.32548	-0.785031	0
61.702	-2.32753	-0.785012	0
61.7076	-2.32966	-0.784954	0
61.7132	-2.3318	-0.784967	0
61.7192	-2.33386	-0.784993	0
61.7248	-2.3361	-0.784967	0
61.7306	-2.33827	-0.784954	0
61.7368	-2.34037	-0.785012	0
61.7426	-2.34253	-0.785012	0
61.748	-2.34456	-0.784923	0
61.7538	-2.34671	-0.784948	0
61.7598	-2.34887	-0.785043	0
61.7654	-2.35091	-0.784942	0
61.7714	-2.35313	-0.785018	0
61.7774	-2.35523	-0.78498	0
61.7834	-2.35735	-0.785031	0
61.789	-2.35943	-0.784929	0
61.7952	-2.36159	-0.784954	0
61.801	-2.36371	-0.784986	0
61.807	-2.36584	-0.784986	0
61.8132	-2.36798	-0.785031	0
61.8194	-2.37023	-0.785024	0
61.8256	-2.37232	-0.785018	0
61.8314	-2.37449	-0.785018	0
61.8376	-2.37657	-0.785024	0
61.8436	-2.37862	-0.784929	0
61.85	-2.38075	-0.785031	0
61.856	-2.38285	-0.785005	0
61.862	-2.38494	-0.785005	0
61.868	-2.38705	-0.784986	0
61.874	-2.3891	-0.785018	0
61.8808	-2.39129	-0.785043	0
61.8866	-2.39334	-0.784961	0
61.8936	-2.39553	-0.785043	0
61.8998	-2.39771	-0.78498	0
61.9066	-2.39985	-0.78498	0
61.9128	-2.40198	-0.78498	0
61.9194	-2.40408	-0.785005	0
61.926	-2.40624	-0.784954	0
61.9326	-2.40834	-0.784954	0
61.9394	-2.41044	-0.78498	0
61.9458	-2.41256	-0.784967	0
61.9526	-2.41474	-0.784993	0
61.9596	-2.41688	-0.784967	0
61.9668	-2.41907	-0.78505	0
61.9736	-2.42115	-0.785012	0
61.9802	-2.42323	-0.785037	0
61.9874	-2.42535	-0.784999	0
61.9944	-2.42751	-0.784929	0
62.0014	-2.42967	-0.784967	0
62.0084	-2.43169	-0.784961	0
62.0156	-2.43373	-0.785005	0
62.0228	-2.43587	-0.785012	0
62.03	-2.43803	-0.784961	0
62.0376	-2.44015	-0.784999	0
62.0446	-2.44225	-0.784929	0
62.0524	-2.44443	-0.785024	0
62.06	-2.44651	-0.785107	0
62.0674	-2.44859	-0.784948	0
62.0756	-2.4508	-0.785069	0
62.0838	-2.45294	-0.785018	0
62.091	-2.45502	-0.784942	0
62.099	-2.4571	-0.785012	0
62.107	-2.45922	-0.784993	0
62.1154	-2.4613	-0.785018	0
62.1236	-2.4635	-0.78505	0
62.132	-2.46558	-0.785018	0
62.1396	-2.46766	-0.784935	0
62.149	-2.46995	-0.784961	0
62.1584	-2.47211	-0.784999	0
62.1672	-2.47421	-0.784891	0
62.1756	-2.47625	-0.785018	0
62.1842	-2.47839	-0.78498	0
62.1938	-2.48051	-0.785012	0
62.203	-2.48265	-0.785037	0
62.2122	-2.48479	-0.785018	0
62.2216	-2.48694	-0.785075	0
62.2316	-2.4891	-0.784999	0
62.2414	-2.49126	-0.785018	0
62.2508	-2.4933	-0.784993	0
62.2608	-2.4955	-0.784923	0
62.2716	-2.49777	-0.785018	0
62.282	-2.49993	-0.784923	0
62.2926	-2.50201	-0.784993	0
62.3028	-2.50413	-0.784986	0
62.3138	-2.50634	-0.78498	0
62.3244	-2.50852	-0.784967	0
62.3358	-2.51064	-0.785005	0
62.3468	-2.51274	-0.785037	0
62.3588	-2.51501	-0.784961	0
62.3698	-2.51707	-0.785031	0
62.3808	-2.51911	-0.784999	0
62.3928	-2.52123	-0.785018	0
62.4046	-2.52343	-0.784967	0
62.416	-2.52547	-0.78498	0
62.4276	-2.52749	-0.78498	0
62.441	-2.52973	-0.784993	0
62.4536	-2.53187	-0.785005	0
62.4662	-2.53393	-0.785005	0
62.478	-2.53603	-0.785018	0
62.4912	-2.53811	-0.785024	0
62.5044	-2.54027	-0.784993	0
62.5172	-2.54237	-0.785012	0
62.5306	-2.54443	-0.785012	0
62.5438	-2.54651	-0.784986	0
62.5576	-2.54869	-0.784973	0
62.572	-2.55084	-0.78505	0
62.5858	-2.55291	-0.785012	0
62.6002	-2.55497	-0.785005	0
62.6148	-2.55705	-0.785012	0
62.6286	-2.55919	-0.785075	0
62.6438	-2.56131	-0.784948	0
62.6584	-2.56337	-0.784999	0
62.6738	-2.56556	-0.78498	0
62.6898	-2.56763	-0.784954	0
62.7052	-2.56975	-0.784999	0
62.7212	-2.57183	-0.785018	0
62.7374	-2.57396	-0.784993	0
62.7538	-2.57601	-0.784942	0
62.7708	-2.57818	-0.784986	0
62.7872	-2.58023	-0.784999	0
62.8034	-2.58227	-0.785005	0
62.8212	-2.58443	-0.785056	0
62.8392	-2.58656	-0.784961	0
62.8576	-2.58872	-0.785075	0
62.875	-2.59084	-0.784986	0
62.894	-2.593	-0.785031	0
62.9128	-2.59506	-0.785012	0
62.9312	-2.59714	-0.784993	0
62.9496	-2.59924	-0.785024	0
62.9696	-2.6014	-0.785075	0
62.989	-2.6035	-0.784986	0
63.0094	-2.60569	-0.785005	0
63.03	-2.60785	-0.785005	0
63.051	-2.60993	-0.784993	0
63.0728	-2.61203	-0.784967	0
63.0926	-2.61419	-0.785018	0
63.114	-2.61627	-0.785018	0
63.136	-2.61835	-0.785005	0
63.1582	-2.62051	-0.785024	0
63.1802	-2.62263	-0.785063	0
63.2012	-2.62465	-0.785005	0
63.2248	-2.62673	-0.785043	0
63.2472	-2.62876	-0.784967	0
63.2692	-2.63082	-0.785018	0
63.2924	-2.6329	-0.784999	0
63.3152	-2.63496	-0.78498	0
63.3406	-2.63708	-0.784961	0
63.3654	-2.63928	-0.785024	0
63.3916	-2.64144	-0.785024	0
63.4156	-2.6435	-0.784973	0
63.4406	-2.64552	-0.785056	0
63.4654	-2.64758	-0.785024	0
63.4906	-2.64961	-0.784967	0
63.5164	-2.65167	-0.784999	0
63.5414	-2.65373	-0.785005	0
63.567	-2.65579	-0.784993	0
63.593	-2.65785	-0.785012	0
63.62	-2.65997	-0.785056	0
63.6456	-2.66202	-0.784993	0
63.6752	-2.66414	-0.78498	0
63.7026	-2.66624	-0.785012	0
63.7288	-2.6683	-0.785069	0
63.7576	-2.67042	-0.784999	0
63.7858	-2.67256	-0.784967	0
63.814	-2.67464	-0.785024	0
63.8436	-2.67679	-0.785075	0
63.8732	-2.67891	-0.785043	0
63.9006	-2.68096	-0.785133	0
63.9296	-2.68302	-0.78498	0
63.959	-2.68508	-0.785063	0
63.9882	-2.68718	-0.785043	0
64.0184	-2.68932	-0.785005	0
64.0472	-2.69134	-0.785005	0
64.0784	-2.6935	-0.784961	0
64.1102	-2.69575	-0.785012	0
64.1422	-2.69783	-0.785043	0
64.1708	-2.69989	-0.784999	0
64.2028	-2.70194	-0.784999	0
64.2326	-2.70398	-0.785024	0
64.2622	-2.70608	-0.785056	0
64.2944	-2.70816	-0.785031	0
64.3266	-2.71019	-0.785037	0
64.3562	-2.71229	-0.785018	0
64.3876	-2.71431	-0.785018	0
64.4202	-2.71649	-0.784999	0
64.451	-2.71853	-0.785056	0
64.484	-2.72061	-0.785037	0
64.5154	-2.72267	-0.784986	0
64.5458	-2.72477	-0.785037	0
64.5798	-2.72685	-0.784986	0
64.6122	-2.72895	-0.785012	0
64.6452	-2.73107	-0.785012	0
64.6786	-2.73313	-0.784961	0
64.71	-2.73516	-0.784993	0
64.7434	-2.73728	-0.785012	0
64.7776	-2.73934	-0.785069	0
64.8108	-2.74144	-0.78505	0
64.8436	-2.74346	-0.785094	0
64.8752	-2.74551	-0.785043	0
64.9096	-2.74764	-0.785031	0
64.9428	-2.74974	-0.784973	0
64.9784	-2.75179	-0.785005	0
65.0128	-2.75385	-0.785037	0
65.044	-2.75591	-0.785024	0
65.0784	-2.75795	-0.784999	0
65.1128	-2.76001	-0.785018	0
65.146	-2.76213	-0.785082	0
65.1826	-2.76422	-0.785037	0
65.2168	-2.7663	-0.784948	0
65.2502	-2.76836	-0.785037	0
65.2856	-2.77042	-0.785082	0
65.3208	-2.7725	-0.785043	0
65.3562	-2.77458	-0.785031	0
65.3894	-2.77662	-0.78505	0
65.4268	-2.77878	-0.784993	0
65.462	-2.78083	-0.784999	0
65.4982	-2.78293	-0.785043	0
65.5322	-2.78501	-0.785069	0
65.5702	-2.78713	-0.785069	0
65.6054	-2.78921	-0.785056	0
65.641	-2.79131	-0.785024	0
65.6774	-2.79339	-0.784929	0
65.7144	-2.79547	-0.784999	0
65.7494	-2.79749	-0.785031	0
65.7852	-2.79952	-0.785018	0
65.8212	-2.8016	-0.785012	0
65.8588	-2.80375	-0.785056	0
65.8956	-2.80584	-0.785037	0
65.9316	-2.8079	-0.784986	0
65.9682	-2.80992	-0.784973	0
66.0032	-2.81194	-0.785056	0
66.0404	-2.81403	-0.785082	0
66.0782	-2.81613	-0.784999	0
66.1158	-2.81825	-0.785094	0
66.152	-2.82029	-0.785031	0
66.1902	-2.82235	-0.784948	0
66.2272	-2.82439	-0.784999	0
66.2632	-2.82642	-0.785101	0
66.3006	-2.82848	-0.785018	0
66.3388	-2.83058	-0.785031	0
66.3762	-2.8326	-0.784993	0
66.4116	-2.83463	-0.785126	0
66.4512	-2.83676	-0.784973	0
66.4888	-2.83885	-0.78505	0
66.5272	-2.84093	-0.784999	0
66.5678	-2.84306	-0.78505	0
66.6046	-2.84513	-0.785012	0
66.6442	-2.84728	-0.785024	0
66.6832	-2.84933	-0.785031	0
66.7208	-2.85141	-0.785043	0
66.7594	-2.85347	-0.78505	0
66.7992	-2.85553	-0.784973	0
66.8378	-2.85765	-0.785012	0
66.8754	-2.85969	-0.784929	0
66.9146	-2.86174	-0.785031	0
66.9536	-2.86382	-0.785037	0
66.9924	-2.86592	-0.785043	0
67.0304	-2.86794	-0.785018	0
67.07	-2.87	-0.785082	0
67.1084	-2.87208	-0.785024	0
67.148	-2.87413	-0.785024	0
67.1862	-2.87615	-0.784999	0
67.2228	-2.87819	-0.785031	0
67.2638	-2.88024	-0.785069	0
67.3026	-2.8823	-0.784967	0
67.3402	-2.88438	-0.785075	0
67.3806	-2.8864	-0.785037	0
67.421	-2.88854	-0.78505	0
67.4612	-2.8906	-0.785012	0
67.5014	-2.89272	-0.785018	0
67.5414	-2.89478	-0.785018	0
67.5814	-2.89687	-0.785012	0
67.6218	-2.89889	-0.785063	0
67.6608	-2.90105	-0.784986	0
67.7006	-2.90309	-0.785069	0
67.7414	-2.90517	-0.785031	0
67.7798	-2.90725	-0.784942	0
67.8214	-2.90941	-0.784986	0
67.8598	-2.91145	-0.785018	0
67.9022	-2.91357	-0.785037	0
67.9444	-2.91573	-0.785024	0
67.9832	-2.91779	-0.785056	0
68.0234	-2.91987	-0.785056	0
68.0642	-2.92195	-0.785171	0
68.1048	-2.92401	-0.785024	0
68.1444	-2.92606	-0.785063	0
68.1852	-2.92816	-0.785018	0
68.2262	-2.93026	-0.785012	0
68.2654	-2.93234	-0.785018	0
68.3072	-2.93448	-0.785082	0
68.3492	-2.93656	-0.784986	0
68.3874	-2.9386	-0.784973	0
68.4274	-2.94064	-0.78498	0
68.4694	-2.94276	-0.785069	0
68.508	-2.94482	-0.784993	0
68.5488	-2.94687	-0.785043	0
68.5878	-2.94889	-0.785082	0
68.627	-2.95093	-0.785031	0
68.6654	-2.95298	-0.785012	0
68.706	-2.95502	-0.785043	0
68.7456	-2.95704	-0.785031	0
68.7858	-2.95911	-0.784999	0
68.8264	-2.96119	-0.78505	0
68.867	-2.96321	-0.785069	0
68.906	-2.96525	-0.78505	0
68.9444	-2.96728	-0.785101	0
68.9856	-2.96934	-0.784967	0
69.0232	-2.97136	-0.785043	0
69.064	-2.97346	-0.785056	0
69.1048	-2.97556	-0.785018	0
69.1446	-2.97761	-0.785005	0
69.185	-2.97971	-0.785012	0
69.226	-2.98179	-0.785012	0
69.265	-2.98385	-0.784967	0
69.3052	-2.98601	-0.785024	0
69.3464	-2.98811	-0.785018	0
69.3876	-2.99023	-0.785024	0
69.4294	-2.99242	-0.785024	0
69.4708	-2.99448	-0.785012	0
69.5084	-2.99654	-0.784973	0
69.5486	-2.99864	-0.785024	0
69.5878	-3.00069	-0.785114	0
69.6284	-3.00275	-0.785024	0
69.6684	-3.00479	-0.784973	0
69.7078	-3.00693	-0.785043	0
69.747	-3.00897	-0.785024	0
69.786	-3.01104	-0.784961	0
69.8248	-3.01306	-0.785012	0
69.8626	-3.0151	-0.785043	0
69.9034	-3.01718	-0.784986	0
69.9428	-3.01924	-0.785018	0
69.982	-3.02131	-0.785075	0
70.0202	-3.02344	-0.78498	0
70.0602	-3.02547	-0.785037	0
70.0986	-3.02753	-0.785031	0
70.1386	-3.02969	-0.785043	0
70.1788	-3.03183	-0.785005	0
70.219	-3.03395	-0.784993	0
70.2588	-3.03599	-0.785043	0
70.2968	-3.03803	-0.785037	0
70.3362	-3.04011	-0.785018	0
70.3744	-3.04219	-0.785031	0
70.413	-3.04429	-0.785024	0
70.4524	-3.04634	-0.784999	0
70.491	-3.04847	-0.785075	0
70.5306	-3.05056	-0.784986	0
70.5688	-3.0526	-0.785037	0
70.6074	-3.05466	-0.785063	0
70.6456	-3.05678	-0.785037	0
70.6858	-3.05898	-0.784993	0
70.727	-3.06115	-0.784993	0
70.7662	-3.06318	-0.78505	0
70.8036	-3.0652	-0.785043	0
70.8412	-3.06724	-0.785043	0
70.877	-3.06927	-0.784993	0
70.9148	-3.07129	-0.785037	0
70.9544	-3.07341	-0.784986	0
70.9916	-3.07545	-0.785056	0
71.0284	-3.07747	-0.78505	0
71.0674	-3.07958	-0.784986	0
71.1046	-3.08162	-0.78498	0
71.1436	-3.08366	-0.785043	0
71.1798	-3.08572	-0.785018	0
71.2184	-3.08777	-0.785024	0
71.2566	-3.08983	-0.785063	0
71.2934	-3.09191	-0.785018	0
71.3352	-3.09403	-0.785024	0
71.3726	-3.09605	-0.784973	0
71.4104	-3.09809	-0.784973	0
71.448	-3.10019	-0.785082	0
71.4882	-3.10231	-0.785082	0
71.525	-3.10441	-0.785018	0
71.5628	-3.10646	-0.785082	0
71.6018	-3.10852	-0.784999	0
71.6402	-3.11058	-0.785094	0
71.6786	-3.11264	-0.785037	0
71.7172	-3.11478	-0.785082	0
71.7562	-3.11688	-0.785005	0
71.7944	-3.11894	-0.78505	0
71.8316	-3.12102	-0.785037	0
71.87	-3.1231	-0.785024	0
71.9056	-3.12513	-0.785056	0
71.9452	-3.12719	-0.785075	0
71.9844	-3.12927	-0.785037	0
72.0214	-3.13131	-0.784986	0
72.0608	-3.1334	-0.785012	0
72.099	-3.13544	-0.785031	0
72.1362	-3.13756	-0.785031	0
72.176	-3.13962	-0.785031	0
72.2158	-3.14172	-0.785094	0
72.2534	-3.1438	-0.784948	0
72.2928	-3.14592	-0.785043	0
72.3314	-3.14798	-0.785075	0
72.3688	-3.15004	-0.785031	0
72.4086	-3.15216	-0.785069	0
72.4474	-3.15419	-0.785075	0
72.4864	-3.15629	-0.785005	0
72.5252	-3.15842	-0.785043	0
72.5646	-3.16047	-0.785056	0
72.6034	-3.16259	-0.785005	0
72.6424	-3.16469	-0.785031	0
72.6816	-3.16671	-0.785024	0
72.7202	-3.16877	-0.785043	0
72.7604	-3.17093	-0.784993	0
72.7992	-3.17295	-0.784923	0
72.8376	-3.17507	-0.785056	0
72.878	-3.17712	-0.785031	0
72.9166	-3.1792	-0.785101	0
72.9572	-3.18128	-0.78498	0
72.996	-3.18338	-0.785043	0
73.0346	-3.18548	-0.78498	0
73.0746	-3.1875	-0.785037	0
73.1118	-3.18958	-0.78498	0
73.152	-3.19164	-0.785075	0
73.1896	-3.19371	-0.785063	0
73.2304	-3.19586	-0.785024	0
73.2724	-3.19798	-0.784935	0
73.3128	-3.20008	-0.78505	0
73.3538	-3.20218	-0.785037	0
73.3926	-3.20425	-0.784948	0
73.4318	-3.20635	-0.785031	0
73.4726	-3.20839	-0.785037	0
73.5116	-3.21041	-0.785031	0
73.5504	-3.21247	-0.785012	0
73.5914	-3.21455	-0.784999	0
73.6292	-3.21658	-0.784999	0
73.6676	-3.2186	-0.784986	0
73.7088	-3.22072	-0.785005	0
73.7494	-3.22278	-0.785069	0
73.788	-3.22483	-0.784973	0
73.8288	-3.22691	-0.785005	0
73.869	-3.22899	-0.785043	0
73.9088	-3.23103	-0.78505	0
73.9516	-3.23325	-0.784986	0
73.9894	-3.23527	-0.784993	0
74.0326	-3.23741	-0.784986	0
74.0734	-3.23947	-0.785094	0
74.1146	-3.24151	-0.785056	0
74.1536	-3.24356	-0.785018	0
74.193	-3.24562	-0.785012	0
74.2342	-3.24774	-0.785005	0
74.2732	-3.2498	-0.785043	0
74.3148	-3.25184	-0.785012	0
74.357	-3.25396	-0.784999	0
74.3978	-3.25602	-0.78505	0
74.438	-3.25805	-0.784961	0
74.4772	-3.26015	-0.785037	0
74.5196	-3.26223	-0.784967	0
74.559	-3.26427	-0.785043	0
74.5998	-3.26631	-0.785005	0
74.6408	-3.26841	-0.785043	0
74.6824	-3.27049	-0.785088	0
74.7232	-3.27256	-0.785024	0
74.764	-3.27462	-0.784986	0
74.803	-3.27666	-0.785018	0
74.846	-3.27872	-0.785043	0
74.8862	-3.28075	-0.785069	0
74.9256	-3.28277	-0.785005	0
74.9646	-3.28479	-0.785088	0
75.0072	-3.28687	-0.784967	0
75.051	-3.28905	-0.784999	0
75.0936	-3.29111	-0.784973	0
75.1348	-3.29319	-0.784993	0
75.1742	-3.29522	-0.785069	0
75.217	-3.29732	-0.784999	0
75.2582	-3.29936	-0.784973	0
75.2996	-3.30146	-0.784999	0
75.3422	-3.30352	-0.784993	0
75.3828	-3.30555	-0.784986	0
75.425	-3.30761	-0.785031	0
75.4666	-3.30967	-0.785024	0
75.5078	-3.31173	-0.785063	0
75.5508	-3.31385	-0.78512	0
75.593	-3.31589	-0.785031	0
75.6354	-3.31796	-0.784986	0
75.6772	-3.32004	-0.784967	0
75.7184	-3.32212	-0.785037	0
75.7608	-3.32422	-0.785075	0
75.8024	-3.32624	-0.785069	0
75.8438	-3.3283	-0.784999	0
75.8876	-3.33037	-0.785056	0
75.9302	-3.33241	-0.785037	0
75.9734	-3.33453	-0.785101	0
76.0162	-3.33665	-0.784993	0
76.0568	-3.33867	-0.785031	0
76.1006	-3.34073	-0.785043	0
76.1448	-3.34285	-0.785082	0
76.1862	-3.34491	-0.785005	0
76.2274	-3.34701	-0.78505	0
76.2736	-3.34911	-0.785018	0
76.3164	-3.35121	-0.78498	0
76.3608	-3.35328	-0.784999	0
76.4	-3.3553	-0.784973	0
76.4458	-3.3574	-0.785069	0
76.4904	-3.35948	-0.784967	0
76.531	-3.36156	-0.785063	0
76.5758	-3.36362	-0.785018	0
76.6192	-3.36567	-0.785082	0
76.6624	-3.36777	-0.785018	0
76.705	-3.36979	-0.785075	0
76.7484	-3.37181	-0.784993	0
76.7914	-3.37384	-0.785037	0
76.835	-3.37601	-0.785031	0
76.8804	-3.37804	-0.785005	0
76.9238	-3.38006	-0.78505	0
76.9682	-3.38216	-0.785075	0
77.0116	-3.38426	-0.785018	0
77.0532	-3.38629	-0.785043	0
77.099	-3.38835	-0.784986	0
77.1432	-3.39037	-0.784999	0
77.1878	-3.39249	-0.78498	0
77.2316	-3.39459	-0.785069	0
77.277	-3.39662	-0.785063	0
77.3184	-3.39864	-0.784948	0
77.363	-3.4007	-0.785037	0
77.4074	-3.40274	-0.785094	0
77.4516	-3.40481	-0.78498	0
77.4962	-3.40687	-0.785056	0
77.5416	-3.40899	-0.785031	0
77.5858	-3.41103	-0.785037	0
77.63	-3.41315	-0.785056	0
77.676	-3.41525	-0.785043	0
77.7226	-3.41737	-0.785075	0
77.7688	-3.41947	-0.784973	0
77.8134	-3.42157	-0.785069	0
77.8582	-3.42363	-0.785005	0
77.904	-3.42569	-0.785012	0
77.9482	-3.42773	-0.785024	0
77.9952	-3.42989	-0.785012	0
78.0402	-3.43197	-0.784999	0
78.0846	-3.43402	-0.785037	0
78.129	-3.43604	-0.785031	0
78.1746	-3.43806	-0.785075	0
78.2194	-3.44014	-0.785005	0
78.2658	-3.44224	-0.785043	0
78.311	-3.44431	-0.784986	0
78.3554	-3.44633	-0.785075	0
78.4006	-3.44841	-0.785056	0
78.4472	-3.45047	-0.785094	0
78.4922	-3.45254	-0.78505	0
78.537	-3.45458	-0.785063	0
78.584	-3.45666	-0.785056	0
78.6292	-3.45868	-0.785075	0
78.6754	-3.46074	-0.785133	0
78.7204	-3.46279	-0.784986	0
78.7658	-3.46485	-0.78505	0
78.8122	-3.46705	-0.785069	0
78.861	-3.46911	-0.785069	0
78.9082	-3.47117	-0.785056	0
78.9538	-3.47323	-0.785101	0
78.9968	-3.47527	-0.785005	0
79.0446	-3.4773	-0.785024	0
79.0896	-3.47932	-0.785012	0
79.1362	-3.4814	-0.785043	0
79.181	-3.48343	-0.785043	0
79.2264	-3.48545	-0.78505	0
79.2754	-3.48751	-0.785043	0
79.3206	-3.48957	-0.785088	0
79.3698	-3.49175	-0.785114	0
79.416	-3.49379	-0.785012	0
79.4632	-3.49584	-0.784973	0
79.5104	-3.4979	-0.784999	0
79.5584	-3.49998	-0.785069	0
79.6054	-3.50204	-0.785012	0
79.6522	-3.50408	-0.785094	0
79.6998	-3.50616	-0.785018	0
79.7478	-3.50826	-0.784999	0
79.7974	-3.5104	-0.785012	0
79.8464	-3.51246	-0.785012	0
79.8944	-3.51449	-0.785063	0
79.9424	-3.51651	-0.784948	0
79.9918	-3.51861	-0.785101	0
80.041	-3.52067	-0.784986	0
80.0906	-3.52277	-0.785082	0
80.1422	-3.52484	-0.785043	0
80.1946	-3.52692	-0.785069	0
80.247	-3.52894	-0.784986	0
80.3034	-3.531	-0.785069	0
80.3646	-3.53308	-0.784999	0
80.4354	-3.53515	-0.785075	0
80.531	-3.53717	-0.785018	0
80.8928	-3.53505	-0.785005	0
81.0812	-3.53303	-0.78498	0
81.9768	-3.53509	-0.785101	0
82.3072	-3.53711	-0.785012	0
82.6358	-3.53914	-0.785114	0
82.9932	-3.54118	-0.785075	0
83.3912	-3.5432	-0.785024	0
83.8906	-3.54525	-0.784948	0
84.5218	-3.54727	-0.785031	0
85.4812	-3.54933	-0.785094	0
86.8498	-3.55135	-0.785018	0
88.718	-3.55338	-0.785037	0
91.0108	-3.55548	-0.784986	0
93.802	-3.5575	-0.785005	0
100.04	-3.55953	-0.785056	0
118.368	-3.56084	-0.784973	0
131.813	-3.56174	-0.785075	0
151.813	-3.56327	-0.785063	0
171.117	-3.5647	-0.785069	0
185.774	-3.56672	-0.785012	0
203.962	-3.5685	-0.785037	0
223.454	-3.56997	-0.785063	0
240.052	-3.57062	-0.785063	0