File: EXPERIMENTAL/DATA/Electrochemical-cycling/S-series/2024-07-02_S21_Icell_t1800_C0000_J01_deltaX-110,1mm_plating-stripping_04_CP_C03.txt
time/s	Ewe/V	I/mA	error
1860.26	-6.60662e-05	-0.194805	0
1860.26	-0.0141889	-0.195992	0
1860.26	-0.0259657	-0.195998	0
1860.26	-0.0371699	-0.195991	0
1860.27	-0.0476107	-0.195996	0
1860.27	-0.0572497	-0.195995	0
1860.27	-0.0661634	-0.195992	0
1860.27	-0.0744664	-0.195998	0
1860.28	-0.0824067	-0.195991	0
1860.28	-0.0907478	-0.195996	0
1860.28	-0.0998524	-0.196001	0
1860.29	-0.109033	-0.195996	0
1860.29	-0.117871	-0.196	0
1860.3	-0.126307	-0.195996	0
1860.3	-0.134877	-0.195996	0
1860.31	-0.142684	-0.195991	0
1860.32	-0.150739	-0.195998	0
1860.32	-0.158317	-0.195991	0
1860.33	-0.165894	-0.195997	0
1860.34	-0.17351	-0.195996	0
1860.36	-0.170246	-0.195992	0
1860.37	-0.162478	-0.195997	0
1860.37	-0.154346	-0.195996	0
1860.38	-0.146253	-0.195993	0
1860.38	-0.13776	-0.195992	0
1860.39	-0.129628	-0.195996	0
1860.39	-0.121268	-0.196004	0
1860.4	-0.113748	-0.195996	0
1860.41	-0.105789	-0.196001	0
1860.42	-0.0979437	-0.196	0
1860.45	-0.0904424	-0.195994	0
1860.53	-0.0832084	-0.195991	0
1861.97	-0.0883237	-0.195993	0
1865.51	-0.0955578	-0.196001	0
1876.71	-0.102677	-0.195997	0
1932.7	0.924705	-0.195991	0
1932.7	0.913088	-0.195986	0
1932.7	0.903124	-0.195988	0
1932.71	0.893676	-0.195991	0
1932.71	0.885163	-0.195995	0
1932.71	0.877166	-0.195996	0
1932.72	0.868596	-0.195992	0
1932.72	0.859147	-0.195988	0
1932.72	0.849298	-0.195991	0
1932.73	0.840289	-0.19599	0
1932.73	0.831375	-0.195993	0
1932.74	0.822824	-0.195989	0
1932.74	0.814273	-0.195986	0
1932.74	0.806276	-0.195991	0
1932.75	0.798164	-0.195998	0
1932.75	0.790166	-0.195996	0
1932.76	0.78255	-0.195992	0
1932.76	0.7744	-0.195996	0
1932.77	0.766059	-0.195993	0
1932.77	0.757279	-0.195993	0
1932.78	0.749071	-0.195992	0
1932.78	0.74115	-0.195989	0
1932.79	0.733019	-0.195994	0
1932.79	0.724773	-0.195997	0
1932.8	0.716852	-0.195991	0
1932.8	0.708855	-0.195984	0
1932.81	0.700227	-0.195994	0
1932.82	0.69221	-0.195995	0
1932.82	0.684366	-0.19599	0
1932.83	0.676254	-0.195998	0
1932.83	0.667683	-0.195992	0
1932.84	0.659877	-0.195996	0
1932.85	0.651917	-0.195997	0
1932.85	0.643614	-0.195997	0
1932.86	0.635617	-0.195995	0
1932.87	0.627638	-0.195994	0
1932.87	0.619335	-0.196	0
1932.88	0.611109	-0.195998	0
1932.88	0.60292	-0.195999	0
1932.89	0.594598	-0.195993	0
1932.9	0.586639	-0.196	0
1932.91	0.578527	-0.196003	0
1932.91	0.57072	-0.195995	0
1932.92	0.562226	-0.195991	0
1932.93	0.554343	-0.195991	0
1932.93	0.546365	-0.195993	0
1932.94	0.538577	-0.195991	0
1932.95	0.530561	-0.195995	0
1932.95	0.52283	-0.196001	0
1932.96	0.515386	-0.195996	0
1932.97	0.507332	-0.195997	0
1932.97	0.499506	-0.195998	0
1932.98	0.491833	-0.196	0
1932.99	0.484351	-0.195994	0
1933	0.476143	-0.195993	0
1933	0.468374	-0.195989	0
1933.01	0.460816	-0.195987	0
1933.02	0.452494	-0.195991	0
1933.03	0.444706	-0.195994	0
1933.04	0.436957	-0.195991	0
1933.04	0.428768	-0.195993	0
1933.05	0.420446	-0.195996	0
1933.06	0.412334	-0.195994	0
1933.07	0.40468	-0.195996	0
1933.08	0.396855	-0.195994	0
1933.08	0.38943	-0.195994	0
1933.09	0.381833	-0.195993	0
1933.1	0.373835	-0.195994	0
1933.11	0.365742	-0.195994	0
1933.12	0.357974	-0.195991	0
1933.13	0.350129	-0.195999	0
1933.14	0.342074	-0.195993	0
1933.15	0.334077	-0.195993	0
1933.15	0.326556	-0.195997	0
1933.16	0.319074	-0.195994	0
1933.17	0.311287	-0.196001	0
1933.18	0.303461	-0.195994	0
1933.19	0.295826	-0.195996	0
1933.2	0.288076	-0.195996	0
1933.21	0.280594	-0.195993	0
1933.22	0.273036	-0.195996	0
1933.23	0.265573	-0.195999	0
1933.24	0.257575	-0.195998	0
1933.25	0.249425	-0.195992	0
1933.26	0.24179	-0.195993	0
1933.27	0.234212	-0.195994	0
1933.28	0.226558	-0.195997	0
1933.29	0.218809	-0.195992	0
1933.3	0.21125	-0.195995	0
1933.31	0.20352	-0.195998	0
1933.32	0.195809	-0.195994	0
1933.33	0.188403	-0.195991	0
1933.34	0.180634	-0.195997	0
1933.35	0.173229	-0.195994	0
1933.36	0.165861	-0.195991	0
1933.38	0.158436	-0.195996	0
1933.39	0.150553	-0.195996	0
1933.4	0.14288	-0.195992	0
1933.41	0.135131	-0.195994	0
1933.42	0.12761	-0.195993	0
1933.44	0.119975	-0.195993	0
1933.45	0.112379	-0.195998	0
1933.46	0.10482	-0.195994	0
1933.47	0.0972423	-0.196	0
1933.49	0.0896838	-0.195989	0
1933.5	0.0822207	-0.195996	0
1933.51	0.0744904	-0.195996	0
1933.53	0.0667791	-0.195996	0
1933.54	0.059087	-0.195989	0
1933.56	0.0513757	-0.195999	0
1933.57	0.043569	-0.195994	0
1933.59	0.0357433	-0.195995	0
1933.6	0.0282802	-0.195996	0
1933.61	0.0209316	-0.195996	0
1933.63	0.0137739	-0.195993	0
1933.64	0.00629168	-0.195994	0
1933.66	-0.00128595	-0.195993	0
1933.68	-0.00878724	-0.196	0
1933.69	-0.0162122	-0.195998	0
1933.71	-0.023618	-0.195994	0
1933.73	-0.0314247	-0.19599	0
1933.75	-0.0390405	-0.195992	0
1933.77	-0.0463509	-0.195997	0
1933.78	-0.0539285	-0.195991	0
1933.81	-0.0615253	-0.195997	0
1933.83	-0.0693701	-0.195997	0
1933.86	-0.0768905	-0.195991	0
1933.91	-0.0842009	-0.195994	0
1934.08	-0.0790092	-0.195998	0
1934.22	-0.0716797	-0.195993	0
1934.45	-0.0644456	-0.195997	0
1935.06	-0.0572497	-0.195996	0
1942.25	-0.0541767	-0.195991	0
1947.16	-0.0613535	-0.195997	0
1950.36	-0.0684921	-0.195999	0
1952.64	-0.0756307	-0.195993	0
1954.77	-0.0829411	-0.195995	0
1957.72	-0.0901179	-0.196	0
1963.93	-0.0974474	-0.195997	0
2002.4	0.921677	-0.195987	0
2002.4	0.910817	-0.195985	0
2002.41	0.900471	-0.195992	0
2002.41	0.891176	-0.195991	0
2002.41	0.882567	-0.195991	0
2002.41	0.873902	-0.195989	0
2002.42	0.866324	-0.195993	0
2002.42	0.857086	-0.195992	0
2002.42	0.847313	-0.195991	0
2002.43	0.838361	-0.195994	0
2002.43	0.829505	-0.195998	0
2002.44	0.820477	-0.195997	0
2002.44	0.81183	-0.195994	0
2002.44	0.803203	-0.195996	0
2002.45	0.795091	-0.195991	0
2002.45	0.787055	-0.195987	0
2002.46	0.779191	-0.195989	0
2002.46	0.771174	-0.195993	0
2002.47	0.762261	-0.195996	0
2002.47	0.754683	-0.195993	0
2002.48	0.74554	-0.195994	0
2002.48	0.737657	-0.195993	0
2002.49	0.729125	-0.195987	0
2002.49	0.720918	-0.195993	0
2002.5	0.712577	-0.195991	0
2002.5	0.70393	-0.195995	0
2002.51	0.696066	-0.195991	0
2002.51	0.687668	-0.195998	0
2002.52	0.679212	-0.195994	0
2002.52	0.671081	-0.195998	0
2002.53	0.663198	-0.195998	0
2002.53	0.6552	-0.195991	0
2002.54	0.647489	-0.195995	0
2002.55	0.639511	-0.195995	0
2002.55	0.63136	-0.195987	0
2002.56	0.623038	-0.195998	0
2002.56	0.614564	-0.195991	0
2002.57	0.606261	-0.195998	0
2002.58	0.598015	-0.195995	0
2002.58	0.590304	-0.19599	0
2002.59	0.58244	-0.195991	0
2002.59	0.574347	-0.195994	0
2002.6	0.566826	-0.195989	0
2002.61	0.558733	-0.195996	0
2002.61	0.550736	-0.195989	0
2002.62	0.542719	-0.195998	0
2002.63	0.534206	-0.195989	0
2002.63	0.526018	-0.195991	0
2002.64	0.517849	-0.195991	0
2002.65	0.509412	-0.195995	0
2002.65	0.50172	-0.195989	0
2002.66	0.493341	-0.195993	0
2002.67	0.485286	-0.195989	0
2002.67	0.477059	-0.195987	0
2002.68	0.468985	-0.195994	0
2002.69	0.460969	-0.195996	0
2002.7	0.453257	-0.195991	0
2002.7	0.445336	-0.195993	0
2002.71	0.437625	-0.195994	0
2002.72	0.429856	-0.195995	0
2002.73	0.421744	-0.195991	0
2002.73	0.414033	-0.195991	0
2002.74	0.406207	-0.195994	0
2002.75	0.39863	-0.19599	0
2002.76	0.390174	-0.195997	0
2002.76	0.382348	-0.195993	0
2002.77	0.374255	-0.195996	0
2002.78	0.366468	-0.195989	0
2002.79	0.358318	-0.195993	0
2002.8	0.350568	-0.195994	0
2002.8	0.342628	-0.195989	0
2002.81	0.334497	-0.196	0
2002.82	0.326766	-0.195998	0
2002.83	0.319074	-0.195991	0
2002.84	0.311229	-0.195994	0
2002.85	0.303652	-0.195995	0
2002.86	0.295692	-0.196	0
2002.86	0.287924	-0.195995	0
2002.87	0.279907	-0.195999	0
2002.88	0.272425	-0.195996	0
2002.89	0.264924	-0.195991	0
2002.9	0.25706	-0.195991	0
2002.91	0.248948	-0.195995	0
2002.92	0.241427	-0.195993	0
2002.93	0.233582	-0.195994	0
2002.94	0.226196	-0.195997	0
2002.95	0.218446	-0.195996	0
2002.96	0.210582	-0.195994	0
2002.97	0.202699	-0.195993	0
2002.98	0.195122	-0.195997	0
2002.99	0.18741	-0.195995	0
2003	0.1801	-0.195993	0
2003.01	0.172083	-0.195995	0
2003.02	0.164544	-0.195994	0
2003.03	0.157253	-0.195993	0
2003.04	0.149484	-0.195996	0
2003.05	0.14183	-0.195997	0
2003.06	0.134119	-0.195993	0
2003.08	0.126198	-0.195995	0
2003.09	0.118773	-0.195994	0
2003.1	0.111061	-0.195993	0
2003.11	0.103121	-0.195998	0
2003.12	0.095639	-0.196003	0
2003.13	0.0879469	-0.195995	0
2003.15	0.0802165	-0.195994	0
2003.16	0.0724862	-0.195989	0
2003.17	0.0647559	-0.195998	0
2003.19	0.0570828	-0.195995	0
2003.2	0.0495052	-0.195992	0
2003.21	0.0418703	-0.195991	0
2003.23	0.0343117	-0.195987	0
2003.24	0.0269822	-0.195994	0
2003.25	0.0193283	-0.195992	0
2003.27	0.0118461	-0.195998	0
2003.28	0.00434478	-0.195991	0
2003.3	-0.00338555	-0.195998	0
2003.31	-0.0105814	-0.195994	0
2003.33	-0.0183309	-0.195995	0
2003.34	-0.0259467	-0.195995	0
2003.36	-0.0334289	-0.195998	0
2003.37	-0.0407202	-0.195993	0
2003.39	-0.0483169	-0.195989	0
2003.41	-0.0559136	-0.195989	0
2003.43	-0.0635294	-0.195994	0
2003.46	-0.0707253	-0.195997	0
2003.52	-0.078093	-0.195997	0
2003.76	-0.0708398	-0.195993	0
2004.08	-0.0637012	-0.195997	0
2005.26	-0.0564671	-0.195992	0
2016.05	-0.0615443	-0.19599	0
2019.82	-0.0687975	-0.195991	0
2023.01	-0.0760316	-0.195997	0
2025.65	-0.0832274	-0.195996	0
2028.45	-0.0903088	-0.195999	0
2033.55	-0.0974665	-0.195998	0
2070.11	0.918738	-0.195991	0
2070.11	0.908641	-0.195994	0
2070.11	0.89757	-0.195994	0
2070.11	0.887893	-0.195995	0
2070.12	0.878865	-0.195992	0
2070.12	0.870275	-0.19599	0
2070.12	0.861877	-0.195991	0
2070.13	0.853631	-0.195991	0
2070.13	0.844889	-0.195993	0
2070.13	0.834964	-0.195993	0
2070.14	0.825554	-0.195987	0
2070.14	0.815896	-0.195995	0
2070.15	0.806696	-0.195993	0
2070.15	0.798565	-0.195993	0
2070.15	0.78967	-0.195995	0
2070.16	0.781634	-0.19599	0
2070.16	0.773408	-0.195996	0
2070.17	0.76499	-0.195997	0
2070.17	0.756821	-0.195994	0
2070.18	0.749071	-0.195991	0
2070.18	0.740692	-0.195994	0
2070.18	0.732542	-0.195994	0
2070.19	0.723762	-0.195989	0
2070.19	0.714982	-0.195989	0
2070.2	0.705896	-0.195998	0
2070.21	0.697727	-0.195996	0
2070.21	0.689099	-0.195992	0
2070.22	0.680243	-0.195993	0
2070.22	0.671959	-0.195989	0
2070.23	0.663771	-0.19599	0
2070.23	0.655391	-0.195997	0
2070.24	0.647565	-0.196	0
2070.24	0.63911	-0.195991	0
2070.25	0.63075	-0.195991	0
2070.25	0.622561	-0.195993	0
2070.26	0.614449	-0.195995	0
2070.27	0.606509	-0.195994	0
2070.27	0.598492	-0.195993	0
2070.28	0.59059	-0.195991	0
2070.28	0.582573	-0.195989	0
2070.29	0.57429	-0.195996	0
2070.29	0.566521	-0.195989	0
2070.3	0.558638	-0.195995	0
2070.31	0.550889	-0.195994	0
2070.31	0.542834	-0.195987	0
2070.32	0.534607	-0.195993	0
2070.32	0.526591	-0.19599	0
2070.33	0.518364	-0.195991	0
2070.34	0.51029	-0.195994	0
2070.34	0.502369	-0.195995	0
2070.35	0.494276	-0.195994	0
2070.36	0.486412	-0.195996	0
2070.36	0.478281	-0.195993	0
2070.37	0.470722	-0.195998	0
2070.38	0.462725	-0.195989	0
2070.38	0.455128	-0.195996	0
2070.39	0.446882	-0.195994	0
2070.4	0.438789	-0.195996	0
2070.4	0.43104	-0.195991	0
2070.41	0.422813	-0.195995	0
2070.42	0.414892	-0.195995	0
2070.43	0.407257	-0.195993	0
2070.43	0.399031	-0.195992	0
2070.44	0.391281	-0.195995	0
2070.45	0.383131	-0.195993	0
2070.46	0.37542	-0.195994	0
2070.46	0.367842	-0.195996	0
2070.47	0.359902	-0.195994	0
2070.48	0.351694	-0.195987	0
2070.49	0.343811	-0.195996	0
2070.49	0.335814	-0.195994	0
2070.5	0.327931	-0.196	0
2070.51	0.320105	-0.195992	0
2070.52	0.311993	-0.195994	0
2070.53	0.304033	-0.195993	0
2070.54	0.296303	-0.195996	0
2070.54	0.288496	-0.19599	0
2070.55	0.281071	-0.195996	0
2070.56	0.273017	-0.195991	0
2070.57	0.265649	-0.195989	0
2070.58	0.257842	-0.195996	0
2070.59	0.250322	-0.195997	0
2070.6	0.242401	-0.195991	0
2070.6	0.234861	-0.195994	0
2070.61	0.227131	-0.195991	0
2070.62	0.219229	-0.195989	0
2070.63	0.211785	-0.195995	0
2070.64	0.203883	-0.195988	0
2070.65	0.195809	-0.195994	0
2070.66	0.188078	-0.195991	0
2070.67	0.180444	-0.195998	0
2070.68	0.172637	-0.195992	0
2070.69	0.164868	-0.195991	0
2070.7	0.157119	-0.195989	0
2070.71	0.149274	-0.195994	0
2070.72	0.141582	-0.195998	0
2070.73	0.133623	-0.195994	0
2070.74	0.125892	-0.195994	0
2070.76	0.118219	-0.195993	0
2070.77	0.110355	-0.195989	0
2070.78	0.102339	-0.195997	0
2070.79	0.0943029	-0.195989	0
2070.8	0.0869543	-0.19599	0
2070.81	0.0787277	-0.195988	0
2070.83	0.0710165	-0.195992	0
2070.84	0.0632862	-0.195997	0
2070.85	0.0554986	-0.195993	0
2070.86	0.0479209	-0.195998	0
2070.88	0.0403624	-0.195996	0
2070.89	0.0325557	-0.195988	0
2070.9	0.0252644	-0.195992	0
2070.91	0.0176868	-0.195994	0
2070.93	0.0102618	-0.195996	0
2070.94	0.00291324	-0.19599	0
2070.96	-0.00512249	-0.195996	0
2070.97	-0.0129101	-0.195994	0
2070.99	-0.0205259	-0.195986	0
2071	-0.0280653	-0.195994	0
2071.02	-0.0357002	-0.195996	0
2071.03	-0.0433542	-0.195993	0
2071.05	-0.0509891	-0.19599	0
2071.07	-0.0585286	-0.195994	0
2071.1	-0.0658962	-0.195997	0
2071.15	-0.0733593	-0.195999	0
2071.52	-0.068263	-0.195992	0
2072.42	-0.0609908	-0.195996	0
2081.96	-0.0640829	-0.195998	0
2085.78	-0.0712979	-0.195991	0
2088.82	-0.0784365	-0.195993	0
2091.51	-0.0855752	-0.195996	0
2094.49	-0.0927901	-0.195994	0
2100.43	-0.0999479	-0.195999	0
2135.4	0.912954	-0.195993	0
2135.4	0.902113	-0.195995	0
2135.41	0.891042	-0.195994	0
2135.41	0.881079	-0.195994	0
2135.41	0.871802	-0.195994	0
2135.41	0.863289	-0.195996	0
2135.42	0.854433	-0.195993	0
2135.42	0.846741	-0.19599	0
2135.42	0.838915	-0.195991	0
2135.43	0.830116	-0.195996	0
2135.43	0.821164	-0.196	0
2135.43	0.811162	-0.195991	0
2135.44	0.802611	-0.195996	0
2135.44	0.793697	-0.195993	0
2135.45	0.785051	-0.195992	0
2135.45	0.776786	-0.195998	0
2135.45	0.768197	-0.195994	0
2135.46	0.759837	-0.195996	0
2135.46	0.751495	-0.195991	0
2135.47	0.743402	-0.195992	0
2135.47	0.735195	-0.195987	0
2135.48	0.727083	-0.195997	0
2135.48	0.719009	-0.19599	0
2135.48	0.710401	-0.195984	0
2135.49	0.702308	-0.195998	0
2135.49	0.693432	-0.195998	0
2135.5	0.685205	-0.195991	0
2135.5	0.677113	-0.195992	0
2135.51	0.669096	-0.195991	0
2135.51	0.660869	-0.195997	0
2135.52	0.65249	-0.195994	0
2135.52	0.643863	-0.195998	0
2135.53	0.634987	-0.196001	0
2135.54	0.62697	-0.195991	0
2135.54	0.618992	-0.195994	0
2135.55	0.610746	-0.195991	0
2135.55	0.602901	-0.195993	0
2135.56	0.594713	-0.195988	0
2135.56	0.586849	-0.195998	0
2135.57	0.578832	-0.195994	0
2135.57	0.570911	-0.195991	0
2135.58	0.563009	-0.195996	0
2135.58	0.554821	-0.195991	0
2135.59	0.547415	-0.195998	0
2135.6	0.539494	-0.195999	0
2135.6	0.530809	-0.195994	0
2135.61	0.522754	-0.195996	0
2135.61	0.514222	-0.195992	0
2135.62	0.506511	-0.195996	0
2135.63	0.498876	-0.195993	0
2135.63	0.490687	-0.195996	0
2135.64	0.482194	-0.195991	0
2135.65	0.473872	-0.19599	0
2135.65	0.465855	-0.195995	0
2135.66	0.457705	-0.195996	0
2135.67	0.449287	-0.195992	0
2135.67	0.440965	-0.195994	0
2135.68	0.432834	-0.195998	0
2135.69	0.424378	-0.195992	0
2135.69	0.416667	-0.195992	0
2135.7	0.408631	-0.195993	0
2135.71	0.4005	-0.195991	0
2135.72	0.392846	-0.195994	0
2135.72	0.385307	-0.195991	0
2135.73	0.377367	-0.195998	0
2135.74	0.369636	-0.195994	0
2135.74	0.362211	-0.195991	0
2135.75	0.354099	-0.195996	0
2135.76	0.346751	-0.195998	0
2135.77	0.339039	-0.195997	0
2135.77	0.331443	-0.195994	0
2135.78	0.323369	-0.195991	0
2135.79	0.315161	-0.195993	0
2135.8	0.307374	-0.195996	0
2135.8	0.299338	-0.195994	0
2135.81	0.291302	-0.195991	0
2135.82	0.283534	-0.195991	0
2135.83	0.275517	-0.195992	0
2135.84	0.26773	-0.195993	0
2135.85	0.259732	-0.195994	0
2135.86	0.252021	-0.195994	0
2135.86	0.244367	-0.195992	0
2135.87	0.236465	-0.195993	0
2135.88	0.228372	-0.195998	0
2135.89	0.220622	-0.195993	0
2135.9	0.212911	-0.195994	0
2135.91	0.204875	-0.195991	0
2135.92	0.197088	-0.195998	0
2135.93	0.189434	-0.195992	0
2135.94	0.181646	-0.195991	0
2135.95	0.174107	-0.195999	0
2135.96	0.166224	-0.195994	0
2135.97	0.15857	-0.195994	0
2135.98	0.150801	-0.195994	0
2135.99	0.143147	-0.195996	0
2136	0.135436	-0.195995	0
2136.01	0.128087	-0.195994	0
2136.02	0.120643	-0.195984	0
2136.03	0.112989	-0.195989	0
2136.04	0.10503	-0.195998	0
2136.05	0.0974141	-0.195999	0
2136.06	0.0900846	-0.195989	0
2136.07	0.0823734	-0.195993	0
2136.08	0.0744713	-0.195991	0
2136.09	0.0667791	-0.195989	0
2136.1	0.0594114	-0.195996	0
2136.12	0.0516811	-0.195991	0
2136.13	0.0440271	-0.195993	0
2136.14	0.0366976	-0.195998	0
2136.15	0.0292345	-0.195993	0
2136.17	0.0214469	-0.195994	0
2136.18	0.0135639	-0.195996	0
2136.19	0.00615807	-0.195997	0
2136.21	-0.00159135	-0.195991	0
2136.22	-0.00922624	-0.195994	0
2136.23	-0.0165939	-0.195993	0
2136.25	-0.0241143	-0.195999	0
2136.26	-0.0317492	-0.19599	0
2136.28	-0.0393268	-0.195993	0
2136.29	-0.0466372	-0.196	0
2136.31	-0.0539858	-0.19599	0
2136.34	-0.0612771	-0.195989	0
2136.38	-0.0687593	-0.195995	0
2136.9	-0.0676904	-0.195994	0
2144.54	-0.0666025	-0.196	0
2148.72	-0.0737983	-0.195991	0
2151.6	-0.0811278	-0.195994	0
2154.27	-0.0883046	-0.195994	0
2157.44	-0.0955005	-0.196001	0
2164.34	-0.102716	-0.195999	0
2198.79	0.910626	-0.195994	0
2198.8	0.900853	-0.195996	0
2198.8	0.889133	-0.195991	0
2198.8	0.878769	-0.195996	0
2198.8	0.869264	-0.195994	0
2198.81	0.860293	-0.195993	0
2198.81	0.851856	-0.195996	0
2198.81	0.843248	-0.195992	0
2198.82	0.833933	-0.195994	0
2198.82	0.826069	-0.195991	0
2198.82	0.816411	-0.195995	0
2198.83	0.807116	-0.195995	0
2198.83	0.797801	-0.195993	0
2198.84	0.788181	-0.195994	0
2198.84	0.779401	-0.195992	0
2198.84	0.770335	-0.195997	0
2198.85	0.761344	-0.195989	0
2198.85	0.753309	-0.195989	0
2198.86	0.744624	-0.195992	0
2198.86	0.736455	-0.195997	0
2198.86	0.7284	-0.195993	0
2198.87	0.719448	-0.195999	0
2198.87	0.711546	-0.195998	0
2198.88	0.703548	-0.195989	0
2198.88	0.695513	-0.195995	0
2198.89	0.687343	-0.195992	0
2198.89	0.679823	-0.195992	0
2198.9	0.671558	-0.196	0
2198.9	0.66419	-0.195991	0
2198.9	0.655811	-0.195991	0
2198.91	0.647012	-0.195996	0
2198.92	0.63869	-0.195993	0
2198.92	0.629738	-0.195987	0
2198.93	0.621397	-0.195996	0
2198.93	0.613342	-0.195991	0
2198.94	0.605192	-0.195993	0
2198.94	0.596965	-0.195991	0
2198.95	0.588261	-0.195994	0
2198.95	0.579672	-0.195998	0
2198.96	0.571789	-0.195991	0
2198.96	0.563563	-0.195994	0
2198.97	0.555355	-0.195994	0
2198.97	0.547377	-0.195993	0
2198.98	0.539398	-0.195992	0
2198.99	0.531706	-0.195997	0
2198.99	0.52346	-0.195992	0
2199	0.515654	-0.195987	0
2199	0.507427	-0.19599	0
2199.01	0.499162	-0.19599	0
2199.02	0.491069	-0.195988	0
2199.02	0.483377	-0.195998	0
2199.03	0.475284	-0.196001	0
2199.03	0.466848	-0.195994	0
2199.04	0.458755	-0.195998	0
2199.05	0.450261	-0.195994	0
2199.05	0.442626	-0.195995	0
2199.06	0.434991	-0.195989	0
2199.07	0.427089	-0.19599	0
2199.07	0.419015	-0.196	0
2199.08	0.411361	-0.195994	0
2199.09	0.403516	-0.195991	0
2199.09	0.395309	-0.195989	0
2199.1	0.387082	-0.19599	0
2199.11	0.379409	-0.195994	0
2199.11	0.371182	-0.195991	0
2199.12	0.36265	-0.195988	0
2199.13	0.354672	-0.195998	0
2199.14	0.346884	-0.195984	0
2199.14	0.338829	-0.195999	0
2199.15	0.33066	-0.195993	0
2199.16	0.322815	-0.195995	0
2199.17	0.31497	-0.195989	0
2199.17	0.306877	-0.195991	0
2199.18	0.298784	-0.195992	0
2199.19	0.290501	-0.195996	0
2199.2	0.282484	-0.195996	0
2199.21	0.274276	-0.195989	0
2199.22	0.266355	-0.195993	0
2199.22	0.258319	-0.195996	0
2199.23	0.250666	-0.19599	0
2199.24	0.242477	-0.195989	0
2199.25	0.234537	-0.195993	0
2199.26	0.226997	-0.195994	0
2199.27	0.219572	-0.195989	0
2199.27	0.211556	-0.195992	0
2199.28	0.203787	-0.195996	0
2199.29	0.195484	-0.195989	0
2199.3	0.187926	-0.195993	0
2199.31	0.180291	-0.195996	0
2199.32	0.172618	-0.195991	0
2199.33	0.165136	-0.195991	0
2199.34	0.157539	-0.195991	0
2199.35	0.149599	-0.195996	0
2199.36	0.142174	-0.195996	0
2199.37	0.134043	-0.195994	0
2199.38	0.126312	-0.195986	0
2199.39	0.118315	-0.195993	0
2199.4	0.110737	-0.195991	0
2199.41	0.103427	-0.195991	0
2199.42	0.095639	-0.195991	0
2199.43	0.0876415	-0.19599	0
2199.44	0.0799875	-0.195989	0
2199.45	0.0722762	-0.195996	0
2199.46	0.0647559	-0.195998	0
2199.48	0.0568538	-0.195994	0
2199.49	0.0495433	-0.195992	0
2199.5	0.0419466	-0.196001	0
2199.51	0.0344644	-0.195996	0
2199.52	0.0265241	-0.195995	0
2199.53	0.0188511	-0.196	0
2199.55	0.0108344	-0.195996	0
2199.56	0.0028178	-0.195996	0
2199.57	-0.00489344	-0.195993	0
2199.59	-0.0123947	-0.195994	0
2199.6	-0.0203541	-0.195996	0
2199.62	-0.0281035	-0.196002	0
2199.63	-0.0354521	-0.195989	0
2199.65	-0.0431252	-0.195993	0
2199.66	-0.0508746	-0.195994	0
2199.69	-0.0582804	-0.195991	0
2199.72	-0.0655145	-0.195994	0
2200.36	-0.0687402	-0.195997	0
2208.67	-0.0737793	-0.195994	0
2211.8	-0.0809561	-0.195998	0
2214.35	-0.088171	-0.195998	0
2217.4	-0.0952715	-0.195997	0
2222.67	-0.102563	-0.195996	0
2260.98	0.9134	-0.194806	0
2260.98	0.900433	-0.195992	0
2260.98	0.890508	-0.195996	0
2260.99	0.879265	-0.195991	0
2260.99	0.869187	-0.195998	0
2260.99	0.859968	-0.195988	0
2260.99	0.850997	-0.195985	0
2261	0.842751	-0.195996	0
2261	0.834697	-0.195998	0
2261	0.82689	-0.195993	0
2261.01	0.817881	-0.195995	0
2261.01	0.809177	-0.19599	0
2261.01	0.800206	-0.195995	0
2261.02	0.791178	-0.195994	0
2261.02	0.781787	-0.195991	0
2261.02	0.773637	-0.195997	0
2261.03	0.76478	-0.195994	0
2261.03	0.755714	-0.195991	0
2261.04	0.746838	-0.195998	0
2261.04	0.738001	-0.195989	0
2261.05	0.729125	-0.195988	0
2261.05	0.720441	-0.196	0
2261.05	0.711737	-0.195994	0
2261.06	0.703319	-0.195994	0
2261.06	0.694234	-0.195993	0
2261.07	0.686083	-0.195994	0
2261.07	0.67841	-0.195991	0
2261.08	0.66963	-0.195992	0
2261.08	0.661766	-0.195991	0
2261.09	0.652948	-0.195992	0
2261.09	0.644359	-0.195993	0
2261.1	0.63514	-0.195996	0
2261.1	0.626684	-0.195992	0
2261.11	0.618362	-0.195993	0
2261.11	0.610116	-0.195998	0
2261.12	0.60189	-0.195996	0
2261.12	0.592995	-0.195993	0
2261.13	0.584482	-0.195993	0
2261.13	0.576141	-0.195993	0
2261.14	0.567819	-0.195987	0
2261.14	0.559955	-0.195997	0
2261.15	0.5519	-0.195996	0
2261.15	0.543826	-0.195994	0
2261.16	0.535676	-0.195993	0
2261.17	0.527259	-0.195995	0
2261.17	0.519204	-0.195994	0
2261.18	0.511168	-0.195994	0
2261.18	0.503056	-0.195993	0
2261.19	0.494314	-0.195991	0
2261.19	0.486775	-0.195992	0
2261.2	0.478624	-0.195992	0
2261.21	0.47078	-0.195993	0
2261.21	0.462438	-0.195994	0
2261.22	0.45488	-0.195991	0
2261.22	0.44692	-0.195991	0
2261.23	0.439095	-0.195998	0
2261.24	0.431479	-0.195994	0
2261.24	0.423519	-0.195998	0
2261.25	0.41535	-0.195988	0
2261.26	0.407104	-0.195995	0
2261.26	0.399412	-0.195989	0
2261.27	0.391358	-0.19599	0
2261.28	0.383379	-0.195996	0
2261.28	0.375477	-0.195993	0
2261.29	0.367308	-0.195995	0
2261.3	0.359577	-0.195987	0
2261.3	0.351427	-0.195991	0
2261.31	0.342609	-0.195987	0
2261.32	0.334649	-0.195997	0
2261.33	0.326499	-0.195991	0
2261.33	0.318826	-0.195998	0
2261.34	0.311153	-0.195995	0
2261.35	0.303136	-0.19599	0
2261.36	0.295234	-0.195989	0
2261.36	0.287198	-0.195993	0
2261.37	0.278934	-0.195994	0
2261.38	0.270955	-0.195991	0
2261.39	0.263301	-0.195994	0
2261.4	0.255246	-0.195994	0
2261.4	0.247211	-0.195998	0
2261.41	0.239175	-0.195995	0
2261.42	0.231387	-0.19599	0
2261.43	0.223562	-0.195994	0
2261.44	0.21606	-0.195993	0
2261.45	0.208254	-0.195994	0
2261.45	0.200371	-0.195996	0
2261.46	0.192621	-0.195989	0
2261.47	0.184872	-0.195998	0
2261.48	0.177027	-0.195993	0
2261.49	0.169373	-0.195993	0
2261.5	0.161604	-0.195986	0
2261.51	0.153588	-0.195995	0
2261.52	0.145915	-0.195989	0
2261.53	0.137784	-0.195998	0
2261.54	0.130244	-0.195991	0
2261.55	0.122361	-0.195995	0
2261.56	0.114402	-0.195992	0
2261.57	0.107034	-0.195996	0
2261.58	0.0995901	-0.195994	0
2261.59	0.092127	-0.195997	0
2261.6	0.0843966	-0.195994	0
2261.61	0.0764373	-0.19599	0
2261.62	0.0688405	-0.196	0
2261.63	0.0613583	-0.195992	0
2261.64	0.0533799	-0.195993	0
2261.65	0.0458595	-0.195993	0
2261.66	0.0383773	-0.195994	0
2261.68	0.0311051	-0.195993	0
2261.69	0.0233938	-0.195996	0
2261.7	0.0159498	-0.195998	0
2261.71	0.00841036	-0.195996	0
2261.72	0.000737293	-0.195993	0
2261.74	-0.00680216	-0.195997	0
2261.75	-0.0145325	-0.195992	0
2261.76	-0.0219193	-0.195994	0
2261.78	-0.0293251	-0.195998	0
2261.79	-0.0366546	-0.195996	0
2261.81	-0.0442322	-0.195997	0
2261.83	-0.0516381	-0.195986	0
2261.85	-0.0590057	-0.195994	0
2261.89	-0.0662971	-0.195998	0
2266.78	-0.073493	-0.195999	0
2271.25	-0.0806507	-0.195994	0
2273.96	-0.087942	-0.195998	0
2276.96	-0.0950997	-0.195993	0
2281.68	-0.102334	-0.195997	0
2296.23	-0.109453	-0.195993	0
2322.24	0.899727	-0.195988	0
2322.25	0.890889	-0.195994	0
2322.25	0.879762	-0.195997	0
2322.25	0.86913	-0.195998	0
2322.25	0.859243	-0.195994	0
2322.26	0.850043	-0.196001	0
2322.26	0.841339	-0.195996	0
2322.26	0.832998	-0.195992	0
2322.27	0.824294	-0.195992	0
2322.27	0.816048	-0.195996	0
2322.27	0.805951	-0.195996	0
2322.28	0.797286	-0.195992	0
2322.28	0.787475	-0.195995	0
2322.28	0.777912	-0.195996	0
2322.29	0.768941	-0.195997	0
2322.29	0.75997	-0.195989	0
2322.3	0.751209	-0.195989	0
2322.3	0.741895	-0.195989	0
2322.3	0.733095	-0.195993	0
2322.31	0.724602	-0.19599	0
2322.31	0.716165	-0.195994	0
2322.32	0.707614	-0.195991	0
2322.32	0.699349	-0.195988	0
2322.33	0.691199	-0.195994	0
2322.33	0.683125	-0.195995	0
2322.33	0.675223	-0.195993	0
2322.34	0.666958	-0.195994	0
2322.34	0.658941	-0.195986	0
2322.35	0.650982	-0.19599	0
2322.35	0.64266	-0.195992	0
2322.36	0.633765	-0.195993	0
2322.36	0.625405	-0.195992	0
2322.37	0.61674	-0.195998	0
2322.37	0.608627	-0.195989	0
2322.38	0.600897	-0.195989	0
2322.38	0.592613	-0.19599	0
2322.39	0.584177	-0.195994	0
2322.39	0.575397	-0.196001	0
2322.4	0.567246	-0.195987	0
2322.4	0.558676	-0.195996	0
2322.41	0.550679	-0.195987	0
2322.41	0.542204	-0.195994	0
2322.42	0.534206	-0.195991	0
2322.42	0.525884	-0.195993	0
2322.43	0.517581	-0.195997	0
2322.43	0.50903	-0.195994	0
2322.44	0.500918	-0.195996	0
2322.45	0.493131	-0.19599	0
2322.45	0.485114	-0.195991	0
2322.46	0.477078	-0.195996	0
2322.46	0.4691	-0.195992	0
2322.47	0.461026	-0.195998	0
2322.47	0.452952	-0.195991	0
2322.48	0.444954	-0.195992	0
2322.49	0.437224	-0.195994	0
2322.49	0.428826	-0.195991	0
2322.5	0.42058	-0.195996	0
2322.51	0.412449	-0.195994	0
2322.51	0.40447	-0.195993	0
2322.52	0.395767	-0.195996	0
2322.53	0.388094	-0.195991	0
2322.53	0.379905	-0.195993	0
2322.54	0.372003	-0.195993	0
2322.55	0.363681	-0.195996	0
2322.55	0.355454	-0.195999	0
2322.56	0.347323	-0.195994	0
2322.57	0.339288	-0.195994	0
2322.57	0.331424	-0.195994	0
2322.58	0.323216	-0.195995	0
2322.59	0.315085	-0.195994	0
2322.6	0.307202	-0.195998	0
2322.6	0.298975	-0.195995	0
2322.61	0.29115	-0.195994	0
2322.62	0.283572	-0.196001	0
2322.62	0.276147	-0.195995	0
2322.63	0.268436	-0.195994	0
2322.64	0.260343	-0.195991	0
2322.65	0.252441	-0.195991	0
2322.66	0.244787	-0.195996	0
2322.66	0.237056	-0.195997	0
2322.67	0.229154	-0.19599	0
2322.68	0.221653	-0.195994	0
2322.69	0.213598	-0.195994	0
2322.7	0.205658	-0.195993	0
2322.71	0.197928	-0.196001	0
2322.71	0.190464	-0.195991	0
2322.72	0.182887	-0.195997	0
2322.73	0.175424	-0.196	0
2322.74	0.167235	-0.195994	0
2322.75	0.159715	-0.195995	0
2322.76	0.151851	-0.195994	0
2322.77	0.143682	-0.195993	0
2322.78	0.136028	-0.196001	0
2322.79	0.128355	-0.195993	0
2322.8	0.120701	-0.196	0
2322.81	0.113085	-0.195996	0
2322.82	0.105297	-0.195994	0
2322.83	0.0977004	-0.195991	0
2322.84	0.0899701	-0.195998	0
2322.85	0.082507	-0.195995	0
2322.86	0.0747003	-0.195986	0
2322.87	0.0672563	-0.195994	0
2322.88	0.0594496	-0.195999	0
2322.89	0.0518338	-0.195988	0
2322.9	0.0441798	-0.195997	0
2322.91	0.0363922	-0.195995	0
2322.92	0.0288146	-0.195991	0
2322.93	0.0213324	-0.195991	0
2322.95	0.013583	-0.195994	0
2322.96	0.00604354	-0.195995	0
2322.97	-0.00138139	-0.195991	0
2322.98	-0.00871089	-0.195992	0
2323	-0.0166893	-0.196002	0
2323.01	-0.0244197	-0.195986	0
2323.02	-0.03194	-0.195994	0
2323.04	-0.0396513	-0.195993	0
2323.06	-0.0472098	-0.195993	0
2323.08	-0.0546729	-0.195991	0
2323.1	-0.0620597	-0.195988	0
2323.15	-0.0692747	-0.195991	0
2327.27	-0.0763942	-0.195993	0
2331.47	-0.0836092	-0.196	0
2334.31	-0.0907287	-0.196001	0
2337.84	-0.0978483	-0.195995	0
2344.17	-0.104968	-0.195998	0
2383.23	0.906906	-0.194808	0
2383.23	0.895012	-0.195994	0
2383.24	0.883942	-0.195991	0
2383.24	0.872489	-0.195993	0
2383.24	0.86224	-0.195994	0
2383.25	0.852467	-0.195992	0
2383.25	0.843248	-0.195992	0
2383.25	0.834639	-0.195995	0
2383.25	0.826222	-0.195994	0
2383.26	0.817728	-0.195995	0
2383.26	0.808967	-0.195991	0
2383.26	0.800359	-0.195991	0
2383.27	0.791178	-0.195994	0
2383.27	0.78297	-0.195989	0
2383.27	0.773923	-0.195992	0
2383.28	0.764818	-0.195996	0
2383.28	0.756439	-0.19599	0
2383.29	0.74701	-0.195993	0
2383.29	0.737753	-0.195993	0
2383.29	0.728495	-0.195993	0
2383.3	0.719734	-0.195993	0
2383.3	0.710916	-0.195998	0
2383.31	0.702346	-0.195996	0
2383.31	0.693795	-0.195998	0
2383.31	0.685645	-0.195994	0
2383.32	0.677342	-0.195997	0
2383.32	0.669306	-0.195997	0
2383.33	0.660888	-0.195989	0
2383.33	0.652986	-0.195993	0
2383.34	0.644492	-0.195994	0
2383.34	0.636838	-0.196	0
2383.34	0.628879	-0.195997	0
2383.35	0.620385	-0.195995	0
2383.35	0.61233	-0.195994	0
2383.36	0.604352	-0.195998	0
2383.36	0.596049	-0.195994	0
2383.37	0.587632	-0.195996	0
2383.37	0.579978	-0.195993	0
2383.38	0.571751	-0.196	0
2383.38	0.563944	-0.195994	0
2383.39	0.556214	-0.195992	0
2383.39	0.548121	-0.195993	0
2383.4	0.539589	-0.195994	0
2383.4	0.531095	-0.195986	0
2383.41	0.522945	-0.195996	0
2383.41	0.514642	-0.195994	0
2383.42	0.506358	-0.195996	0
2383.43	0.49838	-0.195999	0
2383.43	0.490096	-0.195993	0
2383.44	0.481907	-0.195995	0
2383.44	0.473833	-0.195999	0
2383.45	0.465969	-0.195994	0
2383.45	0.457934	-0.195993	0
2383.46	0.449707	-0.195997	0
2383.46	0.44213	-0.195996	0
2383.47	0.434342	-0.195993	0
2383.48	0.426573	-0.195988	0
2383.48	0.418919	-0.195999	0
2383.49	0.411208	-0.195992	0
2383.49	0.402982	-0.195998	0
2383.5	0.395099	-0.195992	0
2383.51	0.387464	-0.195996	0
2383.51	0.378913	-0.196001	0
2383.52	0.370991	-0.195993	0
2383.53	0.362841	-0.195993	0
2383.53	0.354729	-0.196	0
2383.54	0.346636	-0.195996	0
2383.55	0.338524	-0.195994	0
2383.55	0.330374	-0.195994	0
2383.56	0.322376	-0.195996	0
2383.57	0.31415	-0.195996	0
2383.58	0.306458	-0.195994	0
2383.58	0.298345	-0.195996	0
2383.59	0.289909	-0.195994	0
2383.6	0.281816	-0.195994	0
2383.6	0.274353	-0.195997	0
2383.61	0.266775	-0.195993	0
2383.62	0.259198	-0.195994	0
2383.63	0.251276	-0.195993	0
2383.63	0.243622	-0.195994	0
2383.64	0.235701	-0.195993	0
2383.65	0.227665	-0.195994	0
2383.66	0.21963	-0.195991	0
2383.67	0.21146	-0.195992	0
2383.68	0.203539	-0.195993	0
2383.68	0.195981	-0.195995	0
2383.69	0.187869	-0.195994	0
2383.7	0.18031	-0.195994	0
2383.71	0.172351	-0.195994	0
2383.72	0.164258	-0.195987	0
2383.73	0.156508	-0.195997	0
2383.74	0.148759	-0.195991	0
2383.75	0.14057	-0.195997	0
2383.76	0.132668	-0.195996	0
2383.77	0.124919	-0.195996	0
2383.77	0.117284	-0.19599	0
2383.78	0.109325	-0.195991	0
2383.8	0.101442	-0.195996	0
2383.8	0.0937494	-0.195995	0
2383.82	0.0859236	-0.195992	0
2383.83	0.0780597	-0.196	0
2383.84	0.0703293	-0.195996	0
2383.85	0.0626563	-0.195999	0
2383.86	0.0550596	-0.195996	0
2383.87	0.0473865	-0.195995	0
2383.88	0.0397134	-0.196	0
2383.89	0.0318877	-0.195997	0
2383.9	0.0240237	-0.195994	0
2383.92	0.016217	-0.195998	0
2383.93	0.00892572	-0.195993	0
2383.94	0.00096634	-0.195996	0
2383.95	-0.00676399	-0.195993	0
2383.97	-0.0141889	-0.195992	0
2383.98	-0.0215757	-0.195994	0
2383.99	-0.0292297	-0.195994	0
2384.01	-0.03675	-0.195986	0
2384.02	-0.0441368	-0.195996	0
2384.04	-0.051619	-0.195994	0
2384.07	-0.059063	-0.195994	0
2384.1	-0.066507	-0.195993	0
2385.46	-0.0738365	-0.195995	0
2389.43	-0.0810897	-0.195999	0
2392.9	-0.0883237	-0.195994	0
2396.3	-0.0955196	-0.196	0
2401.66	-0.102754	-0.195993	0
2417.61	-0.10995	-0.195996	0
2443.55	0.893314	-0.195993	0
2443.55	0.884266	-0.196001	0
2443.56	0.872967	-0.195996	0
2443.56	0.862068	-0.195992	0
2443.56	0.852047	-0.195991	0
2443.56	0.842446	-0.195993	0
2443.57	0.833361	-0.195992	0
2443.57	0.824714	-0.195995	0
2443.57	0.81643	-0.195993	0
2443.58	0.808375	-0.195987	0
2443.58	0.80074	-0.195986	0
2443.58	0.793144	-0.195997	0
2443.58	0.78486	-0.195997	0
2443.59	0.776633	-0.195994	0
2443.59	0.768235	-0.195995	0
2443.59	0.759531	-0.195993	0
2443.6	0.750579	-0.195991	0
2443.6	0.741379	-0.195994	0
2443.61	0.732847	-0.195991	0
2443.61	0.72443	-0.195993	0
2443.61	0.715592	-0.195994	0
2443.62	0.706698	-0.195994	0
2443.62	0.697784	-0.195994	0
2443.63	0.688698	-0.195993	0
2443.63	0.680605	-0.19599	0
2443.63	0.672226	-0.195998	0
2443.64	0.664019	-0.195991	0
2443.64	0.65541	-0.195998	0
2443.65	0.64726	-0.195996	0
2443.65	0.639148	-0.195998	0
2443.66	0.630826	-0.19599	0
2443.66	0.622256	-0.195996	0
2443.67	0.613667	-0.195993	0
2443.67	0.604982	-0.195989	0
2443.68	0.596469	-0.195993	0
2443.68	0.588071	-0.195994	0
2443.68	0.580512	-0.195986	0
2443.69	0.571942	-0.195994	0
2443.69	0.564059	-0.195994	0
2443.7	0.555909	-0.195993	0
2443.7	0.547739	-0.195996	0
2443.71	0.539245	-0.19599	0
2443.71	0.53079	-0.195995	0
2443.72	0.52264	-0.195982	0
2443.72	0.514566	-0.195996	0
2443.73	0.506625	-0.195994	0
2443.74	0.498609	-0.195998	0
2443.74	0.490363	-0.195986	0
2443.75	0.482308	-0.195991	0
2443.75	0.474368	-0.195992	0
2443.76	0.465931	-0.195993	0
2443.76	0.457877	-0.195996	0
2443.77	0.449936	-0.195998	0
2443.77	0.441843	-0.195991	0
2443.78	0.43333	-0.195995	0
2443.79	0.425447	-0.195995	0
2443.79	0.417679	-0.195996	0
2443.8	0.409605	-0.195989	0
2443.8	0.401779	-0.195996	0
2443.81	0.393839	-0.196001	0
2443.82	0.38546	-0.195988	0
2443.82	0.377271	-0.195994	0
2443.83	0.368892	-0.195996	0
2443.84	0.360913	-0.195995	0
2443.84	0.35303	-0.195992	0
2443.85	0.345166	-0.195991	0
2443.86	0.336959	-0.195993	0
2443.86	0.328866	-0.195994	0
2443.87	0.320315	-0.195994	0
2443.88	0.312222	-0.195993	0
2443.88	0.30432	-0.195996	0
2443.89	0.296437	-0.195998	0
2443.9	0.288229	-0.195993	0
2443.9	0.28048	-0.195996	0
2443.91	0.272749	-0.195995	0
2443.92	0.264866	-0.195998	0
2443.93	0.256907	-0.196	0
2443.93	0.24889	-0.195996	0
2443.94	0.241046	-0.195993	0
2443.95	0.232972	-0.195991	0
2443.96	0.22507	-0.195994	0
2443.97	0.217206	-0.195992	0
2443.97	0.209323	-0.19599	0
2443.98	0.201382	-0.195993	0
2443.99	0.193327	-0.196001	0
2444	0.185654	-0.196	0
2444.01	0.177848	-0.195989	0
2444.02	0.170003	-0.195994	0
2444.02	0.162101	-0.195994	0
2444.03	0.15416	-0.195999	0
2444.04	0.146736	-0.195997	0
2444.05	0.138261	-0.195998	0
2444.06	0.130626	-0.196	0
2444.07	0.122399	-0.196003	0
2444.08	0.114516	-0.195994	0
2444.09	0.107015	-0.195994	0
2444.1	0.0995137	-0.195989	0
2444.11	0.0920124	-0.195993	0
2444.12	0.0842439	-0.195993	0
2444.13	0.0765709	-0.195993	0
2444.14	0.0689742	-0.195989	0
2444.15	0.0612629	-0.195991	0
2444.16	0.0534371	-0.195993	0
2444.17	0.0456877	-0.195991	0
2444.18	0.0383201	-0.195996	0
2444.19	0.0307233	-0.19599	0
2444.21	0.0228785	-0.195996	0
2444.22	0.0154726	-0.195991	0
2444.23	0.00797135	-0.195995	0
2444.24	0.000183763	-0.195993	0
2444.26	-0.00760383	-0.195992	0
2444.27	-0.0154105	-0.195993	0
2444.28	-0.0230072	-0.195993	0
2444.3	-0.0304322	-0.195996	0
2444.31	-0.0382388	-0.195989	0
2444.33	-0.0458928	-0.196	0
2444.35	-0.0534704	-0.195989	0
2444.38	-0.0608763	-0.195996	0
2444.42	-0.0681294	-0.196	0
2445.9	-0.0753062	-0.195998	0
2449.19	-0.0825976	-0.195998	0
2452.64	-0.0898316	-0.195995	0
2456.66	-0.0970848	-0.195999	0
2463.18	-0.104281	-0.195994	0
2503.66	0.900572	-0.194808	0
2503.67	0.888714	-0.195992	0
2503.67	0.878311	-0.195995	0
2503.67	0.868023	-0.195995	0
2503.67	0.857277	-0.195995	0
2503.68	0.847122	-0.195997	0
2503.68	0.837426	-0.195997	0
2503.68	0.828398	-0.195992	0
2503.68	0.81979	-0.195994	0
2503.69	0.811544	-0.195998	0
2503.69	0.803432	-0.195998	0
2503.69	0.795186	-0.195995	0
2503.7	0.786826	-0.195996	0
2503.7	0.777511	-0.195993	0
2503.7	0.768941	-0.195998	0
2503.71	0.760466	-0.195996	0
2503.71	0.751591	-0.195997	0
2503.71	0.742563	-0.195996	0
2503.72	0.733821	-0.195992	0
2503.72	0.724678	-0.195987	0
2503.73	0.715821	-0.195995	0
2503.73	0.706984	-0.195988	0
2503.73	0.698032	-0.195996	0
2503.74	0.689214	-0.19599	0
2503.74	0.6803	-0.196	0
2503.75	0.671825	-0.195992	0
2503.75	0.663255	-0.195994	0
2503.75	0.654532	-0.195992	0
2503.76	0.645867	-0.195995	0
2503.76	0.637812	-0.195998	0
2503.77	0.629108	-0.195996	0
2503.77	0.620767	-0.195994	0
2503.78	0.61212	-0.195994	0
2503.78	0.603436	-0.195991	0
2503.79	0.594484	-0.195996	0
2503.79	0.586582	-0.195996	0
2503.8	0.5791	-0.195995	0
2503.8	0.570663	-0.195991	0
2503.81	0.561711	-0.195991	0
2503.81	0.553618	-0.195997	0
2503.81	0.545201	-0.195997	0
2503.82	0.537375	-0.195994	0
2503.82	0.529511	-0.195994	0
2503.83	0.520903	-0.195993	0
2503.83	0.512771	-0.195993	0
2503.84	0.504411	-0.195992	0
2503.85	0.496204	-0.195989	0
2503.85	0.487863	-0.195994	0
2503.86	0.479941	-0.195994	0
2503.86	0.471486	-0.195992	0
2503.87	0.463488	-0.195999	0
2503.87	0.455242	-0.195997	0
2503.88	0.447092	-0.195991	0
2503.88	0.439114	-0.195995	0
2503.89	0.431173	-0.195986	0
2503.9	0.423119	-0.195991	0
2503.9	0.415121	-0.195993	0
2503.91	0.407143	-0.195997	0
2503.91	0.398725	-0.195998	0
2503.92	0.390976	-0.195991	0
2503.93	0.38252	-0.195998	0
2503.93	0.375038	-0.195994	0
2503.94	0.36662	-0.195996	0
2503.94	0.359024	-0.195997	0
2503.95	0.350931	-0.195993	0
2503.96	0.342723	-0.195998	0
2503.96	0.334458	-0.195994	0
2503.97	0.3269	-0.195994	0
2503.98	0.319246	-0.195994	0
2503.98	0.311497	-0.195998	0
2503.99	0.303251	-0.195991	0
2504	0.294604	-0.19599	0
2504	0.286702	-0.195993	0
2504.01	0.278953	-0.195991	0
2504.02	0.270936	-0.195998	0
2504.03	0.263301	-0.196	0
2504.03	0.255876	-0.195998	0
2504.04	0.248165	-0.196001	0
2504.05	0.239919	-0.195999	0
2504.06	0.231865	-0.195994	0
2504.06	0.223962	-0.196	0
2504.07	0.21648	-0.195991	0
2504.08	0.208635	-0.195991	0
2504.09	0.200771	-0.195993	0
2504.09	0.19285	-0.195993	0
2504.1	0.184967	-0.195988	0
2504.11	0.177371	-0.195989	0
2504.12	0.169583	-0.195993	0
2504.13	0.161795	-0.195996	0
2504.14	0.154046	-0.195994	0
2504.15	0.145991	-0.195998	0
2504.16	0.137879	-0.195996	0
2504.16	0.130244	-0.195988	0
2504.17	0.122361	-0.195994	0
2504.18	0.114784	-0.195991	0
2504.19	0.10713	-0.195994	0
2504.2	0.0994565	-0.195994	0
2504.21	0.0918216	-0.195996	0
2504.22	0.0840531	-0.195998	0
2504.23	0.0763991	-0.195995	0
2504.24	0.0688024	-0.195995	0
2504.25	0.061282	-0.195998	0
2504.26	0.0535708	-0.195996	0
2504.27	0.0458213	-0.195996	0
2504.29	0.0379765	-0.195993	0
2504.3	0.0302462	-0.195994	0
2504.31	0.0226303	-0.195994	0
2504.32	0.0146519	-0.195988	0
2504.33	0.00703608	-0.195992	0
2504.35	-0.000579726	-0.195993	0
2504.36	-0.00815736	-0.195994	0
2504.37	-0.0157732	-0.195989	0
2504.39	-0.0234462	-0.195989	0
2504.4	-0.0310048	-0.195992	0
2504.42	-0.0387542	-0.195997	0
2504.44	-0.0460073	-0.195992	0
2504.46	-0.0536231	-0.195999	0
2504.48	-0.0608954	-0.195996	0
2504.53	-0.0681867	-0.195992	0
2505.39	-0.0733212	-0.195998	0
2507.83	-0.0805743	-0.195993	0
2511	-0.087732	-0.196	0
2514.8	-0.0948134	-0.195994	0
2520.42	-0.101952	-0.195999	0
2535.77	-0.109052	-0.196007	0
2539.66	-0.109549	-0.195998	0