File: EXPERIMENTAL/DATA/Electrochemical-cycling/S-series/2024-07-02_S20_Icell_t1800_C0010_J01_deltaX-110,2mm_plating-stripping_07_CP_C02.txt
time/s	Ewe/V	I/mA	error
2569.78	0.912787	-0.194577	0
2569.78	0.908216	-0.195966	0
2569.78	0.906595	-0.19596	0
2569.78	0.905335	-0.195963	0
2569.78	0.904285	-0.195969	0
2569.78	0.903178	-0.19597	0
2569.78	0.90209	-0.195967	0
2569.78	0.900258	-0.195975	0
2569.78	0.89854	-0.195966	0
2569.78	0.896956	-0.195963	0
2569.78	0.895448	-0.19597	0
2569.78	0.893691	-0.195962	0
2569.78	0.892279	-0.19597	0
2569.78	0.890752	-0.19597	0
2569.78	0.889282	-0.195966	0
2569.78	0.888041	-0.195963	0
2569.78	0.886533	-0.195967	0
2569.78	0.88514	-0.195969	0
2569.78	0.883708	-0.195966	0
2569.79	0.882353	-0.195969	0
2569.79	0.881112	-0.195963	0
2569.79	0.879891	-0.195968	0
2569.79	0.878554	-0.19597	0
2569.79	0.877352	-0.195969	0
2569.79	0.876073	-0.195966	0
2569.79	0.874794	-0.195967	0
2569.79	0.873687	-0.195962	0
2569.79	0.87237	-0.195974	0
2569.79	0.871148	-0.195964	0
2569.79	0.870022	-0.195961	0
2569.79	0.868934	-0.19597	0
2569.79	0.867731	-0.195966	0
2569.79	0.866586	-0.195964	0
2569.79	0.865403	-0.195972	0
2569.79	0.864334	-0.195968	0
2569.79	0.863227	-0.195968	0
2569.79	0.862062	-0.195972	0
2569.79	0.860974	-0.195968	0
2569.79	0.859962	-0.195967	0
2569.79	0.858779	-0.195969	0
2569.79	0.857767	-0.195967	0
2569.79	0.856622	-0.195969	0
2569.79	0.854999	-0.19597	0
2569.79	0.853911	-0.195964	0
2569.8	0.852594	-0.195964	0
2569.8	0.85143	-0.195965	0
2569.8	0.85038	-0.19597	0
2569.8	0.848948	-0.19597	0
2569.8	0.847803	-0.19597	0
2569.8	0.846391	-0.195966	0
2569.8	0.844845	-0.19597	0
2569.8	0.843527	-0.195975	0
2569.8	0.842	-0.195969	0
2569.8	0.840607	-0.19597	0
2569.8	0.839194	-0.195967	0
2569.8	0.838068	-0.195968	0
2569.8	0.836846	-0.195968	0
2569.8	0.835797	-0.195964	0
2569.8	0.83448	-0.195973	0
2569.8	0.832991	-0.195975	0
2569.8	0.831654	-0.195967	0
2569.8	0.830395	-0.19597	0
2569.81	0.829307	-0.195964	0
2569.81	0.828047	-0.195959	0
2569.81	0.826711	-0.195972	0
2569.81	0.825661	-0.19597	0
2569.81	0.82442	-0.19597	0
2569.81	0.823141	-0.195966	0
2569.81	0.821862	-0.195975	0
2569.81	0.820411	-0.195965	0
2569.81	0.819152	-0.195973	0
2569.81	0.817987	-0.195972	0
2569.81	0.816537	-0.195967	0
2569.81	0.815315	-0.195973	0
2569.81	0.814093	-0.19597	0
2569.81	0.812795	-0.195965	0
2569.81	0.811535	-0.195968	0
2569.81	0.810218	-0.19597	0
2569.81	0.809035	-0.19597	0
2569.82	0.807775	-0.195963	0
2569.82	0.806496	-0.195966	0
2569.82	0.80537	-0.195967	0
2569.82	0.804072	-0.195968	0
2569.82	0.802888	-0.19597	0
2569.82	0.801609	-0.195969	0
2569.82	0.800426	-0.195963	0
2569.82	0.799242	-0.195969	0
2569.82	0.798097	-0.195966	0
2569.82	0.797009	-0.195972	0
2569.82	0.795768	-0.195975	0
2569.82	0.794642	-0.195965	0
2569.82	0.793363	-0.195966	0
2569.82	0.792352	-0.195968	0
2569.82	0.791111	-0.195965	0
2569.82	0.789985	-0.195969	0
2569.82	0.788782	-0.195971	0
2569.83	0.787618	-0.195971	0
2569.83	0.786587	-0.195964	0
2569.83	0.785461	-0.195964	0
2569.83	0.784258	-0.195966	0
2569.83	0.783208	-0.195971	0
2569.83	0.781987	-0.195964	0
2569.83	0.780899	-0.195966	0
2569.83	0.779448	-0.195975	0
2569.83	0.778303	-0.195973	0
2569.83	0.777176	-0.195973	0
2569.83	0.775707	-0.195966	0
2569.83	0.774218	-0.195968	0
2569.83	0.772786	-0.195965	0
2569.83	0.771698	-0.19597	0
2569.83	0.770324	-0.195966	0
2569.84	0.769217	-0.195966	0
2569.84	0.767766	-0.195967	0
2569.84	0.766353	-0.195969	0
2569.84	0.764922	-0.19597	0
2569.84	0.763586	-0.195971	0
2569.84	0.762498	-0.195964	0
2569.84	0.761028	-0.195967	0
2569.84	0.759615	-0.19597	0
2569.84	0.758241	-0.195963	0
2569.84	0.756943	-0.195966	0
2569.84	0.755778	-0.195972	0
2569.84	0.75469	-0.195968	0
2569.84	0.753488	-0.195971	0
2569.84	0.752476	-0.195974	0
2569.85	0.750968	-0.195969	0
2569.85	0.749727	-0.195966	0
2569.85	0.748716	-0.195966	0
2569.85	0.747704	-0.195969	0
2569.85	0.746597	-0.195966	0
2569.85	0.745223	-0.195962	0
2569.85	0.744058	-0.195971	0
2569.85	0.742894	-0.195974	0
2569.85	0.741863	-0.195967	0
2569.85	0.74066	-0.195966	0
2569.85	0.739611	-0.195966	0
2569.85	0.738332	-0.195965	0
2569.85	0.737091	-0.195964	0
2569.85	0.73564	-0.19597	0
2569.86	0.7344	-0.195971	0
2569.86	0.733102	-0.195973	0
2569.86	0.73167	-0.195972	0
2569.86	0.730448	-0.195972	0
2569.86	0.729379	-0.195968	0
2569.86	0.728329	-0.195967	0
2569.86	0.72728	-0.195964	0
2569.86	0.726268	-0.195959	0
2569.86	0.725027	-0.195968	0
2569.86	0.72392	-0.195971	0
2569.86	0.722737	-0.195969	0
2569.86	0.721534	-0.195968	0
2569.86	0.720255	-0.195968	0
2569.87	0.719053	-0.195969	0
2569.87	0.717965	-0.195967	0
2569.87	0.716647	-0.195968	0
2569.87	0.715426	-0.195963	0
2569.87	0.714261	-0.195971	0
2569.87	0.713116	-0.195965	0
2569.87	0.712104	-0.195972	0
2569.87	0.710768	-0.195964	0
2569.87	0.709547	-0.195969	0
2569.87	0.708268	-0.195974	0
2569.87	0.707046	-0.195969	0
2569.87	0.705729	-0.195974	0
2569.87	0.704679	-0.195967	0
2569.88	0.703419	-0.195968	0
2569.88	0.702178	-0.195971	0
2569.88	0.700995	-0.195966	0
2569.88	0.699716	-0.195968	0
2569.88	0.698494	-0.195965	0
2569.88	0.697292	-0.195971	0
2569.88	0.696204	-0.19597	0
2569.88	0.695135	-0.195973	0
2569.88	0.694066	-0.195967	0
2569.88	0.692844	-0.195975	0
2569.88	0.691661	-0.195965	0
2569.88	0.690535	-0.195972	0
2569.88	0.689504	-0.195968	0
2569.89	0.688359	-0.195966	0
2569.89	0.687118	-0.195968	0
2569.89	0.686011	-0.195973	0
2569.89	0.684999	-0.195966	0
2569.89	0.683873	-0.195969	0
2569.89	0.682785	-0.19597	0
2569.89	0.681639	-0.195966	0
2569.89	0.680322	-0.195969	0
2569.89	0.679272	-0.195971	0
2569.89	0.678089	-0.195975	0
2569.89	0.676925	-0.195968	0
2569.89	0.675779	-0.19597	0
2569.89	0.674672	-0.195966	0
2569.9	0.673565	-0.195968	0
2569.9	0.672382	-0.195968	0
2569.9	0.671217	-0.195966	0
2569.9	0.670015	-0.195966	0
2569.9	0.668984	-0.19597	0
2569.9	0.667915	-0.195971	0
2569.9	0.666827	-0.195971	0
2569.9	0.665624	-0.195972	0
2569.9	0.664594	-0.195977	0
2569.9	0.663448	-0.195967	0
2569.9	0.662341	-0.195972	0
2569.9	0.661062	-0.195969	0
2569.91	0.659917	-0.19597	0
2569.91	0.658695	-0.195969	0
2569.91	0.657626	-0.195968	0
2569.91	0.656519	-0.195972	0
2569.91	0.655412	-0.195968	0
2569.91	0.65421	-0.195965	0
2569.91	0.65316	-0.195969	0
2569.91	0.651957	-0.19597	0
2569.91	0.650869	-0.195967	0
2569.91	0.649857	-0.195967	0
2569.91	0.648655	-0.195967	0
2569.91	0.647567	-0.195971	0
2569.91	0.646441	-0.195967	0
2569.92	0.645314	-0.195966	0
2569.92	0.644245	-0.19597	0
2569.92	0.643157	-0.195965	0
2569.92	0.64205	-0.195975	0
2569.92	0.641	-0.195971	0
2569.92	0.639912	-0.195969	0
2569.92	0.638901	-0.19597	0
2569.92	0.637698	-0.195963	0
2569.92	0.636457	-0.195962	0
2569.92	0.635388	-0.195964	0
2569.92	0.633976	-0.195964	0
2569.92	0.632964	-0.195968	0
2569.93	0.631934	-0.195963	0
2569.93	0.630826	-0.195971	0
2569.93	0.629719	-0.195969	0
2569.93	0.628612	-0.19597	0
2569.93	0.62741	-0.19597	0
2569.93	0.62636	-0.195967	0
2569.93	0.625348	-0.19597	0
2569.93	0.624012	-0.19597	0
2569.93	0.622886	-0.195968	0
2569.93	0.621721	-0.195967	0
2569.93	0.620461	-0.195964	0
2569.93	0.619412	-0.195968	0
2569.94	0.618362	-0.195965	0
2569.94	0.617216	-0.195963	0
2569.94	0.616033	-0.195969	0
2569.94	0.615021	-0.195969	0
2569.94	0.61401	-0.195969	0
2569.94	0.612788	-0.195965	0
2569.94	0.611681	-0.19597	0
2569.94	0.610497	-0.195968	0
2569.94	0.609486	-0.195974	0
2569.94	0.608226	-0.195973	0
2569.94	0.607195	-0.195971	0
2569.95	0.606126	-0.195969	0
2569.95	0.605076	-0.195966	0
2569.95	0.603778	-0.19597	0
2569.95	0.602614	-0.19597	0
2569.95	0.601564	-0.195968	0
2569.95	0.600514	-0.195969	0
2569.95	0.599502	-0.195971	0
2569.95	0.598185	-0.195969	0
2569.95	0.596964	-0.195959	0
2569.95	0.59578	-0.195975	0
2569.95	0.594616	-0.195966	0
2569.96	0.593471	-0.195968	0
2569.96	0.592268	-0.195971	0
2569.96	0.591237	-0.195969	0
2569.96	0.590187	-0.195972	0
2569.96	0.589137	-0.195968	0
2569.96	0.587954	-0.195971	0
2569.96	0.586694	-0.195966	0
2569.96	0.585644	-0.195968	0
2569.96	0.584461	-0.195968	0
2569.96	0.583411	-0.195974	0
2569.96	0.582399	-0.195966	0
2569.96	0.581349	-0.195963	0
2569.97	0.5803	-0.19597	0
2569.97	0.579269	-0.19597	0
2569.97	0.578181	-0.195969	0
2569.97	0.577112	-0.195966	0
2569.97	0.575814	-0.195964	0
2569.97	0.574592	-0.195968	0
2569.97	0.573466	-0.195964	0
2569.97	0.572263	-0.195964	0
2569.97	0.571175	-0.195974	0
2569.97	0.569992	-0.19597	0
2569.98	0.568866	-0.195972	0
2569.98	0.567587	-0.195968	0
2569.98	0.566422	-0.19597	0
2569.98	0.56522	-0.195963	0
2569.98	0.564113	-0.195964	0
2569.98	0.563063	-0.195967	0
2569.98	0.561898	-0.195963	0
2569.98	0.560868	-0.19597	0
2569.98	0.559589	-0.195968	0
2569.98	0.558424	-0.195966	0
2569.98	0.557298	-0.19597	0
2569.99	0.556153	-0.195971	0
2569.99	0.554855	-0.195968	0
2569.99	0.553805	-0.195969	0
2569.99	0.552755	-0.195964	0
2569.99	0.551724	-0.195962	0
2569.99	0.550522	-0.195971	0
2569.99	0.549491	-0.19597	0
2569.99	0.548269	-0.195974	0
2569.99	0.546876	-0.195967	0
2569.99	0.545788	-0.195968	0
2570	0.544566	-0.195968	0
2570	0.543459	-0.195971	0
2570	0.54218	-0.195964	0
2570	0.541073	-0.195969	0
2570	0.539966	-0.195968	0
2570	0.538687	-0.195972	0
2570	0.537504	-0.195974	0
2570	0.536244	-0.195969	0
2570	0.535041	-0.195965	0
2570	0.533953	-0.195969	0
2570.01	0.532732	-0.195971	0
2570.01	0.531529	-0.195963	0
2570.01	0.530231	-0.19597	0
2570.01	0.529124	-0.195961	0
2570.01	0.527864	-0.195973	0
2570.01	0.5267	-0.195967	0
2570.01	0.525612	-0.195973	0
2570.01	0.524466	-0.195971	0
2570.01	0.523416	-0.195968	0
2570.01	0.522252	-0.195973	0
2570.02	0.521088	-0.195966	0
2570.02	0.519904	-0.195971	0
2570.02	0.518778	-0.195965	0
2570.02	0.517709	-0.195967	0
2570.02	0.516621	-0.19597	0
2570.02	0.51538	-0.19597	0
2570.02	0.514369	-0.195968	0
2570.02	0.513262	-0.195966	0
2570.02	0.512116	-0.195973	0
2570.02	0.511028	-0.195968	0
2570.03	0.509864	-0.195968	0
2570.03	0.508509	-0.195971	0
2570.03	0.507459	-0.195966	0
2570.03	0.506447	-0.195963	0
2570.03	0.505378	-0.195966	0
2570.03	0.504309	-0.195966	0
2570.03	0.503297	-0.195968	0
2570.03	0.502057	-0.195966	0
2570.03	0.50095	-0.19597	0
2570.03	0.499881	-0.195967	0
2570.04	0.498831	-0.195966	0
2570.04	0.497743	-0.195965	0
2570.04	0.496597	-0.195968	0
2570.04	0.495452	-0.195972	0
2570.04	0.49444	-0.195968	0
2570.04	0.49341	-0.19597	0
2570.04	0.492169	-0.195967	0
2570.04	0.491119	-0.195966	0
2570.04	0.48984	-0.195969	0
2570.05	0.488695	-0.195972	0
2570.05	0.487607	-0.195964	0
2570.05	0.486385	-0.195966	0
2570.05	0.485221	-0.195967	0
2570.05	0.48419	-0.195967	0
2570.05	0.483026	-0.195973	0
2570.05	0.481976	-0.195962	0
2570.05	0.480869	-0.195974	0
2570.05	0.479628	-0.19597	0
2570.05	0.478425	-0.195968	0
2570.06	0.477356	-0.195968	0
2570.06	0.476326	-0.19597	0
2570.06	0.475142	-0.195966	0
2570.06	0.474111	-0.195965	0
2570.06	0.472871	-0.195966	0
2570.06	0.471592	-0.195968	0
2570.06	0.470542	-0.195973	0
2570.06	0.469454	-0.195972	0
2570.06	0.468347	-0.195966	0
2570.07	0.46724	-0.195969	0
2570.07	0.46619	-0.195975	0
2570.07	0.465159	-0.195965	0
2570.07	0.464033	-0.195966	0
2570.07	0.462926	-0.195973	0
2570.07	0.461723	-0.195966	0
2570.07	0.460349	-0.195969	0
2570.07	0.459165	-0.195968	0
2570.07	0.457982	-0.195971	0
2570.07	0.45697	-0.195968	0
2570.08	0.455825	-0.19597	0
2570.08	0.454794	-0.195968	0
2570.08	0.453515	-0.195968	0
2570.08	0.45237	-0.195968	0
2570.08	0.451358	-0.195969	0
2570.08	0.450232	-0.195971	0
2570.08	0.44901	-0.195966	0
2570.08	0.447903	-0.195972	0
2570.08	0.446872	-0.195971	0
2570.09	0.445822	-0.195964	0
2570.09	0.444715	-0.195969	0
2570.09	0.443513	-0.195977	0
2570.09	0.442291	-0.195966	0
2570.09	0.440993	-0.195965	0
2570.09	0.439943	-0.195971	0
2570.09	0.438722	-0.195971	0
2570.09	0.437557	-0.19597	0
2570.09	0.436526	-0.19597	0
2570.1	0.435515	-0.195963	0
2570.1	0.434503	-0.195964	0
2570.1	0.433377	-0.195971	0
2570.1	0.432365	-0.195966	0
2570.1	0.431182	-0.195968	0
2570.1	0.430151	-0.195965	0
2570.1	0.428872	-0.195965	0
2570.1	0.427612	-0.195969	0
2570.1	0.426352	-0.195971	0
2570.11	0.425245	-0.19597	0
2570.11	0.424214	-0.195971	0
2570.11	0.422993	-0.195966	0
2570.11	0.42179	-0.19597	0
2570.11	0.42076	-0.195964	0
2570.11	0.41971	-0.195966	0
2570.11	0.418431	-0.195966	0
2570.11	0.417305	-0.195971	0
2570.12	0.416178	-0.195969	0
2570.12	0.415052	-0.195968	0
2570.12	0.413869	-0.195966	0
2570.12	0.412723	-0.195965	0
2570.12	0.411616	-0.195966	0
2570.12	0.410356	-0.195968	0
2570.12	0.409287	-0.195971	0
2570.12	0.408123	-0.195969	0
2570.12	0.407035	-0.195967	0
2570.13	0.405852	-0.19597	0
2570.13	0.404668	-0.195967	0
2570.13	0.403599	-0.195972	0
2570.13	0.40253	-0.195971	0
2570.13	0.401499	-0.195964	0
2570.13	0.400316	-0.195968	0
2570.13	0.399228	-0.195976	0
2570.13	0.397987	-0.195968	0
2570.13	0.396842	-0.195964	0
2570.14	0.395544	-0.19597	0
2570.14	0.394494	-0.195967	0
2570.14	0.393349	-0.195971	0
2570.14	0.392242	-0.195971	0
2570.14	0.390944	-0.195973	0
2570.14	0.389798	-0.195965	0
2570.14	0.388481	-0.195964	0
2570.14	0.387412	-0.195964	0
2570.15	0.386381	-0.195968	0
2570.15	0.385351	-0.195968	0
2570.15	0.384301	-0.195971	0
2570.15	0.383289	-0.195967	0
2570.15	0.382087	-0.195973	0
2570.15	0.380808	-0.195967	0
2570.15	0.379472	-0.195964	0
2570.15	0.378403	-0.195964	0
2570.16	0.377257	-0.195968	0
2570.16	0.376169	-0.195971	0
2570.16	0.3751	-0.195972	0
2570.16	0.374089	-0.195969	0
2570.16	0.373039	-0.195963	0
2570.16	0.371874	-0.195964	0
2570.16	0.370729	-0.195971	0
2570.16	0.369526	-0.19597	0
2570.16	0.368477	-0.195973	0
2570.17	0.367427	-0.195969	0
2570.17	0.366415	-0.19597	0
2570.17	0.365308	-0.195963	0
2570.17	0.36422	-0.195964	0
2570.17	0.363208	-0.195967	0
2570.17	0.361929	-0.195967	0
2570.17	0.360841	-0.195966	0
2570.17	0.359753	-0.195965	0
2570.18	0.358723	-0.19597	0
2570.18	0.357673	-0.195967	0
2570.18	0.356566	-0.195969	0
2570.18	0.355516	-0.195968	0
2570.18	0.354409	-0.195968	0
2570.18	0.353359	-0.195965	0
2570.18	0.352271	-0.195971	0
2570.18	0.351068	-0.195972	0
2570.18	0.34998	-0.19597	0
2570.19	0.348625	-0.19597	0
2570.19	0.347518	-0.195973	0
2570.19	0.346296	-0.195964	0
2570.19	0.345132	-0.195971	0
2570.19	0.344101	-0.195969	0
2570.19	0.34307	-0.195966	0
2570.19	0.342039	-0.195966	0
2570.19	0.340894	-0.19597	0
2570.2	0.339787	-0.195968	0
2570.2	0.338775	-0.195971	0
2570.2	0.33742	-0.195968	0
2570.2	0.336332	-0.195966	0
2570.2	0.335053	-0.19597	0
2570.2	0.33387	-0.195975	0
2570.2	0.332839	-0.195968	0
2570.21	0.331808	-0.195969	0
2570.21	0.330701	-0.19597	0
2570.21	0.329575	-0.195968	0
2570.21	0.328353	-0.19597	0
2570.21	0.327284	-0.195971	0
2570.21	0.326043	-0.195974	0
2570.21	0.324993	-0.195964	0
2570.21	0.323829	-0.195965	0
2570.22	0.322646	-0.195971	0
2570.22	0.321462	-0.195968	0
2570.22	0.320431	-0.195959	0
2570.22	0.319324	-0.195972	0
2570.22	0.318274	-0.195971	0
2570.22	0.317072	-0.19597	0
2570.22	0.315927	-0.195968	0
2570.22	0.3148	-0.195967	0
2570.23	0.313636	-0.195966	0
2570.23	0.312529	-0.195971	0
2570.23	0.311498	-0.195969	0
2570.23	0.310429	-0.195962	0
2570.23	0.309207	-0.195966	0
2570.23	0.308005	-0.195971	0
2570.23	0.306802	-0.19597	0
2570.23	0.305791	-0.195968	0
2570.24	0.304664	-0.195971	0
2570.24	0.303595	-0.195965	0
2570.24	0.302584	-0.195968	0
2570.24	0.3014	-0.195969	0
2570.24	0.300198	-0.19597	0
2570.24	0.299091	-0.195968	0
2570.24	0.297793	-0.195971	0
2570.25	0.296724	-0.195968	0
2570.25	0.295559	-0.195969	0
2570.25	0.294452	-0.195973	0
2570.25	0.293421	-0.195968	0
2570.25	0.292295	-0.195961	0
2570.25	0.291284	-0.195971	0
2570.25	0.290062	-0.195965	0
2570.25	0.288993	-0.195964	0
2570.26	0.287848	-0.195963	0
2570.26	0.286836	-0.195968	0
2570.26	0.28571	-0.195968	0
2570.26	0.28466	-0.195973	0
2570.26	0.28361	-0.195968	0
2570.26	0.28256	-0.19597	0
2570.26	0.281415	-0.195966	0
2570.26	0.280403	-0.195968	0
2570.27	0.279143	-0.195964	0
2570.27	0.277979	-0.195966	0
2570.27	0.276853	-0.195971	0
2570.27	0.275593	-0.195966	0
2570.27	0.274543	-0.195973	0
2570.27	0.273398	-0.195972	0
2570.27	0.272386	-0.195964	0
2570.28	0.271374	-0.195968	0
2570.28	0.270076	-0.195972	0
2570.28	0.269007	-0.195971	0
2570.28	0.267938	-0.195968	0
2570.28	0.26685	-0.195962	0
2570.28	0.265801	-0.195971	0
2570.28	0.264713	-0.195971	0
2570.29	0.263472	-0.195968	0
2570.29	0.262307	-0.195968	0
2570.29	0.261219	-0.19597	0
2570.29	0.260208	-0.195968	0
2570.29	0.259139	-0.195968	0
2570.29	0.258013	-0.195972	0
2570.29	0.256848	-0.195963	0
2570.29	0.255817	-0.195969	0
2570.3	0.254729	-0.195967	0
2570.3	0.253527	-0.195968	0
2570.3	0.252343	-0.195966	0
2570.3	0.251294	-0.19597	0
2570.3	0.250282	-0.195971	0
2570.3	0.249251	-0.19597	0
2570.3	0.248182	-0.195969	0
2570.31	0.246999	-0.195968	0
2570.31	0.245892	-0.195966	0
2570.31	0.244842	-0.195966	0
2570.31	0.243735	-0.19597	0
2570.31	0.242723	-0.195968	0
2570.31	0.241692	-0.195969	0
2570.31	0.240585	-0.195974	0
2570.32	0.239497	-0.195966	0
2570.32	0.23818	-0.195968	0
2570.32	0.237015	-0.19597	0
2570.32	0.235908	-0.195964	0
2570.32	0.234897	-0.195971	0
2570.32	0.233828	-0.195971	0
2570.32	0.232759	-0.195969	0
2570.33	0.231652	-0.19597	0
2570.33	0.230583	-0.19597	0
2570.33	0.229418	-0.195968	0
2570.33	0.228273	-0.195969	0
2570.33	0.227242	-0.195973	0
2570.33	0.226135	-0.195966	0
2570.33	0.225066	-0.19597	0
2570.33	0.224016	-0.195971	0
2570.34	0.222928	-0.195966	0
2570.34	0.221745	-0.195969	0
2570.34	0.220657	-0.195966	0
2570.34	0.219492	-0.195964	0
2570.34	0.218309	-0.195967	0
2570.34	0.217144	-0.195975	0
2570.35	0.215961	-0.195963	0
2570.35	0.214873	-0.195964	0
2570.35	0.213842	-0.195967	0
2570.35	0.212697	-0.195962	0
2570.35	0.211475	-0.195966	0
2570.35	0.210387	-0.195966	0
2570.35	0.209261	-0.195973	0
2570.36	0.208135	-0.195968	0
2570.36	0.206932	-0.195975	0
2570.36	0.205863	-0.195975	0
2570.36	0.204756	-0.195971	0
2570.36	0.203706	-0.195973	0
2570.36	0.202695	-0.195974	0
2570.36	0.201473	-0.195966	0
2570.37	0.200347	-0.19597	0
2570.37	0.199297	-0.19597	0
2570.37	0.198037	-0.195965	0
2570.37	0.197025	-0.195966	0
2570.37	0.196014	-0.19597	0
2570.37	0.194983	-0.195975	0
2570.38	0.193952	-0.195968	0
2570.38	0.192883	-0.195969	0
2570.38	0.191872	-0.195968	0
2570.38	0.190841	-0.195968	0
2570.38	0.189638	-0.195972	0
2570.38	0.188607	-0.195965	0
2570.38	0.187481	-0.195968	0
2570.39	0.186431	-0.195972	0
2570.39	0.185362	-0.195968	0
2570.39	0.184351	-0.195971	0
2570.39	0.183339	-0.19597	0
2570.39	0.182137	-0.195971	0
2570.39	0.180839	-0.195963	0
2570.39	0.179655	-0.195971	0
2570.4	0.178605	-0.195966	0
2570.4	0.177498	-0.195964	0
2570.4	0.176391	-0.195966	0
2570.4	0.175303	-0.195967	0
2570.4	0.174139	-0.195966	0
2570.4	0.173127	-0.19597	0
2570.41	0.17202	-0.195967	0
2570.41	0.170684	-0.195966	0
2570.41	0.169596	-0.195973	0
2570.41	0.168584	-0.19597	0
2570.41	0.1674	-0.195969	0
2570.41	0.166293	-0.195968	0
2570.42	0.165186	-0.195972	0
2570.42	0.164041	-0.195965	0
2570.42	0.162934	-0.195971	0
2570.42	0.161827	-0.195971	0
2570.42	0.160777	-0.195967	0
2570.42	0.159689	-0.195972	0
2570.42	0.158601	-0.195968	0
2570.43	0.157455	-0.195971	0
2570.43	0.156425	-0.19597	0
2570.43	0.155356	-0.195971	0
2570.43	0.154172	-0.195966	0
2570.43	0.153084	-0.195966	0
2570.43	0.151977	-0.195963	0
2570.44	0.150774	-0.19597	0
2570.44	0.149763	-0.195968	0
2570.44	0.148579	-0.195967	0
2570.44	0.147472	-0.195964	0
2570.44	0.146403	-0.195971	0
2570.44	0.145315	-0.195964	0
2570.45	0.144151	-0.195966	0
2570.45	0.143139	-0.195973	0
2570.45	0.141917	-0.19597	0
2570.45	0.140906	-0.19597	0
2570.45	0.139799	-0.19597	0
2570.45	0.138672	-0.195965	0
2570.46	0.137642	-0.195965	0
2570.46	0.136496	-0.19597	0
2570.46	0.135389	-0.19597	0
2570.46	0.134263	-0.195974	0
2570.46	0.133232	-0.195973	0
2570.46	0.132163	-0.195971	0
2570.47	0.131037	-0.195963	0
2570.47	0.129892	-0.195971	0
2570.47	0.128861	-0.195966	0
2570.47	0.127773	-0.195974	0
2570.47	0.126704	-0.195966	0
2570.47	0.125635	-0.195964	0
2570.48	0.124604	-0.195966	0
2570.48	0.123535	-0.19597	0
2570.48	0.122524	-0.195968	0
2570.48	0.121378	-0.195973	0
2570.48	0.120367	-0.195972	0
2570.48	0.119298	-0.195967	0
2570.49	0.118191	-0.195966	0
2570.49	0.116969	-0.195966	0
2570.49	0.115881	-0.195973	0
2570.49	0.114736	-0.195969	0
2570.49	0.113705	-0.195969	0
2570.49	0.112464	-0.195968	0
2570.5	0.111319	-0.195969	0
2570.5	0.110174	-0.195965	0
2570.5	0.109086	-0.195966	0
2570.5	0.108074	-0.19597	0
2570.5	0.106967	-0.19597	0
2570.5	0.105821	-0.195964	0
2570.51	0.104791	-0.19597	0
2570.51	0.10376	-0.19597	0
2570.51	0.102596	-0.195961	0
2570.51	0.101317	-0.195971	0
2570.51	0.100038	-0.195967	0
2570.52	0.099007	-0.195968	0
2570.52	0.0979189	-0.195973	0
2570.52	0.0969072	-0.195968	0
2570.52	0.0958192	-0.195965	0
2570.52	0.0947312	-0.195972	0
2570.52	0.0936813	-0.195969	0
2570.53	0.0926315	-0.195967	0
2570.53	0.0914671	-0.195967	0
2570.53	0.0904172	-0.195968	0
2570.53	0.0893483	-0.195968	0
2570.53	0.0882793	-0.195969	0
2570.54	0.0871913	-0.195968	0
2570.54	0.086046	-0.195967	0
2570.54	0.0849961	-0.195968	0
2570.54	0.0839272	-0.195961	0
2570.54	0.0829155	-0.195967	0
2570.54	0.0818275	-0.195971	0
2570.55	0.0807394	-0.195973	0
2570.55	0.0795942	-0.195968	0
2570.55	0.0785252	-0.195972	0
2570.55	0.0774944	-0.195966	0
2570.55	0.0764637	-0.195968	0
2570.55	0.0753947	-0.195963	0
2570.56	0.0741922	-0.195967	0
2570.56	0.073085	-0.195966	0
2570.56	0.0720734	-0.195966	0
2570.56	0.0709853	-0.195965	0
2570.56	0.06984	-0.195973	0
2570.57	0.0688283	-0.195966	0
2570.57	0.0676067	-0.195967	0
2570.57	0.0665568	-0.195966	0
2570.57	0.065507	-0.195965	0
2570.57	0.0644762	-0.19598	0
2570.58	0.0633691	-0.195962	0
2570.58	0.0622429	-0.195966	0
2570.58	0.0611739	-0.195965	0
2570.58	0.0599332	-0.195967	0
2570.58	0.0588833	-0.195969	0
2570.59	0.0578717	-0.195971	0
2570.59	0.0568027	-0.19597	0
2570.59	0.0556765	-0.19597	0
2570.59	0.0545694	-0.19597	0
2570.59	0.0534241	-0.195966	0
2570.59	0.0523742	-0.195968	0
2570.6	0.0512289	-0.195971	0
2570.6	0.0501218	-0.195964	0
2570.6	0.0489956	-0.195966	0
2570.6	0.0479648	-0.195962	0
2570.6	0.0468768	-0.195963	0
2570.61	0.0457888	-0.195964	0
2570.61	0.0446816	-0.195966	0
2570.61	0.0434027	-0.195966	0
2570.61	0.0423147	-0.195959	0
2570.62	0.0410739	-0.195967	0
2570.62	0.0399668	-0.195966	0
2570.62	0.0388979	-0.19597	0
2570.62	0.0378671	-0.195966	0
2570.62	0.03676	-0.19597	0
2570.63	0.0357292	-0.19597	0
2570.63	0.0346603	-0.195968	0
2570.63	0.0336295	-0.195971	0
2570.63	0.0325606	-0.195967	0
2570.63	0.0313962	-0.195967	0
2570.64	0.0303081	-0.195967	0
2570.64	0.0291628	-0.195971	0
2570.64	0.0281321	-0.195973	0
2570.64	0.0271013	-0.195968	0
2570.64	0.0259178	-0.195973	0
2570.65	0.0247153	-0.195972	0
2570.65	0.02357	-0.195973	0
2570.65	0.0225201	-0.195973	0
2570.65	0.0214512	-0.195968	0
2570.65	0.0204395	-0.195969	0
2570.66	0.0192369	-0.195969	0
2570.66	0.018168	-0.195972	0
2570.66	0.0171372	-0.195966	0
2570.66	0.0160492	-0.195968	0
2570.67	0.0149611	-0.195971	0
2570.67	0.0139304	-0.195969	0
2570.67	0.0128042	-0.195964	0
2570.67	0.0117161	-0.195972	0
2570.67	0.0106472	-0.195966	0
2570.68	0.00955914	-0.195972	0
2570.68	0.00843293	-0.195968	0
2570.68	0.00734489	-0.195973	0
2570.68	0.00627595	-0.195964	0
2570.68	0.00511156	-0.195964	0
2570.69	0.00409988	-0.195975	0
2570.69	0.00293549	-0.195964	0
2570.69	0.00184746	-0.195971	0
2570.69	0.00083578	-0.195962	0
2570.7	-0.000194989	-0.195969	0
2570.7	-0.00126393	-0.195973	0
2570.7	-0.00235197	-0.195964	0
2570.7	-0.00349727	-0.195973	0
2570.71	-0.00462348	-0.195968	0
2570.71	-0.00574969	-0.195961	0
2570.71	-0.00676137	-0.195966	0
2570.71	-0.00796393	-0.19597	0
2570.71	-0.00903288	-0.195962	0
2570.72	-0.0101782	-0.195969	0
2570.72	-0.011228	-0.19597	0
2570.72	-0.0122397	-0.195968	0
2570.72	-0.0132896	-0.195967	0
2570.73	-0.0143394	-0.195966	0
2570.73	-0.0153702	-0.195969	0
2570.73	-0.0164201	-0.19597	0
2570.73	-0.0174317	-0.195969	0
2570.74	-0.0185389	-0.195973	0
2570.74	-0.0196651	-0.19597	0
2570.74	-0.0208485	-0.195971	0
2570.74	-0.0219175	-0.19597	0
2570.75	-0.0230819	-0.195968	0
2570.75	-0.0240936	-0.195969	0
2570.75	-0.0251434	-0.19597	0
2570.75	-0.0261933	-0.195963	0
2570.76	-0.0272813	-0.195964	0
2570.76	-0.0283312	-0.195967	0
2570.76	-0.0295528	-0.19597	0
2570.76	-0.0305645	-0.195968	0
2570.77	-0.0316716	-0.19597	0
2570.77	-0.0327787	-0.195968	0
2570.77	-0.0338286	-0.195966	0
2570.77	-0.0349357	-0.195971	0
2570.78	-0.0360047	-0.19597	0
2570.78	-0.0370736	-0.195971	0
2570.78	-0.0381235	-0.195968	0
2570.79	-0.0392115	-0.195965	0
2570.79	-0.0402613	-0.19597	0
2570.79	-0.0413303	-0.195968	0
2570.8	-0.0424183	-0.195968	0
2570.8	-0.0434682	-0.195971	0
2570.8	-0.0445562	-0.195963	0
2570.8	-0.0455679	-0.195971	0
2570.81	-0.0466559	-0.19597	0
2570.81	-0.047744	-0.195968	0
2570.81	-0.0488702	-0.195964	0
2570.82	-0.0498819	-0.195969	0
2570.82	-0.0508935	-0.195964	0
2570.82	-0.0519816	-0.195968	0
2570.83	-0.0529932	-0.195964	0
2570.83	-0.054024	-0.195968	0
2570.83	-0.0550739	-0.19597	0
2570.84	-0.0561237	-0.195961	0
2570.84	-0.0572309	-0.195969	0
2570.85	-0.0582998	-0.195968	0
2570.85	-0.0594069	-0.195968	0
2570.86	-0.0604568	-0.195972	0
2570.86	-0.0614685	-0.195966	0
2570.87	-0.0625374	-0.195968	0
2570.87	-0.0636445	-0.19597	0
2570.88	-0.0647898	-0.19597	0
2570.88	-0.0658397	-0.195975	0
2570.89	-0.0669086	-0.195975	0
2570.89	-0.0679394	-0.195974	0
2570.9	-0.0690083	-0.195971	0
2570.91	-0.0701536	-0.195967	0
2570.92	-0.0711844	-0.195968	0
2570.92	-0.0721961	-0.195966	0
2570.93	-0.0732269	-0.195969	0
2570.94	-0.0742767	-0.195965	0
2570.95	-0.0753075	-0.195965	0
2570.96	-0.0763192	-0.195971	0
2570.98	-0.0773308	-0.195974	0
2571	-0.0783425	-0.195971	0
2571.02	-0.0793542	-0.19597	0
2571.07	-0.0803659	-0.19597	0
2572.21	-0.0814539	-0.195964	0
2572.87	-0.0824847	-0.195971	0
2573.3	-0.0834964	-0.19597	0
2573.78	-0.0845462	-0.195968	0
2574.22	-0.0855961	-0.195971	0
2574.67	-0.0866459	-0.195968	0
2575.17	-0.0876576	-0.195971	0
2575.61	-0.0887266	-0.195971	0
2576.09	-0.0897382	-0.195973	0
2576.57	-0.090769	-0.195971	0
2577.01	-0.0917807	-0.195968	0
2577.53	-0.0927924	-0.195976	0
2578.04	-0.0938041	-0.195974	0
2578.55	-0.0948157	-0.195968	0
2579.11	-0.0958274	-0.195974	0
2579.7	-0.0968391	-0.195972	0
2580.27	-0.0978699	-0.195974	0
2580.86	-0.0989006	-0.19597	0
2581.61	-0.0999123	-0.195973	0
2582.23	-0.100924	-0.195971	0
2582.89	-0.101936	-0.195974	0
2583.57	-0.102947	-0.195971	0
2584.39	-0.103978	-0.195977	0
2585.13	-0.10499	-0.195971	0
2585.91	-0.106021	-0.195967	0
2586.81	-0.107051	-0.195968	0
2587.83	-0.108063	-0.195971	0
2588.8	-0.109075	-0.19597	0
2589.78	-0.110105	-0.195978	0
2590.88	-0.111117	-0.195976	0
2592.19	-0.112129	-0.195971	0
2593.7	-0.113141	-0.195973	0
2595.34	-0.114152	-0.195976	0
2597.3	-0.115202	-0.195973	0
2600.69	-0.116214	-0.195973	0
2605.78	-0.116901	-0.195969	0