File: EXPERIMENTAL/DATA/Electrochemical-cycling/S-series/2024-06-27_S19_Icell_t1800_C0010_J01_deltaX-109,9mm_02_MB_C06.txt
time/s	Ewe/V	I/mA	error	Ece/V
60.053	2.90223	-0.0250234	0	-0.000717916
60.1732	0.00938945	-13.1251	0	5.58521e-06
60.1736	0.00929399	-13.0519	0	-1.35045e-05
60.174	0.00935127	-12.9832	0	2.46749e-05
60.1744	0.00935127	-12.9074	0	-1.35045e-05
60.1748	0.00929399	-12.8349	0	-1.35045e-05
60.1752	0.00938945	-12.7623	0	-7.07736e-05
60.1756	0.00938945	-12.6897	0	-3.25942e-05
60.176	0.00921763	-12.6286	0	-3.25942e-05
60.1764	0.00929399	-12.5509	0	-5.16839e-05
60.1768	0.00937036	-12.4815	0	5.58521e-06
60.1772	0.00938945	-12.4166	0	6.28543e-05
60.1776	0.00935127	-12.3453	0	-5.16839e-05
60.178	0.00935127	-12.2816	0	-3.25942e-05
60.1784	0.00931308	-12.2135	0	-0.000128043
60.1788	0.00929399	-12.1492	0	2.46749e-05
60.1792	0.00938945	-12.0805	0	4.37646e-05
60.1796	0.00938945	-12.0226	0	-5.16839e-05
60.18	0.00938945	-11.9538	0	-0.000128043
60.1804	0.00935127	-11.8933	0	-3.25942e-05
60.1808	0.00931308	-11.8405	0	2.46749e-05
60.1812	0.00942764	-11.7724	0	-3.25942e-05
60.1816	0.00929399	-11.7074	0	4.37646e-05
60.182	0.00933218	-11.6559	0	4.37646e-05
60.1824	0.00940854	-11.6005	0	2.46749e-05
60.1828	0.00938945	-11.5324	0	-5.16839e-05
60.1834	0.00929399	-11.4426	0	-7.07736e-05
60.1838	0.00935127	-11.3923	0	5.58521e-06
60.1842	0.00933218	-11.3287	0	0.000101034
60.1846	0.00929399	-11.2726	0	-1.35045e-05
60.185	0.00940854	-11.2173	0	-0.000185312
60.1854	0.00940854	-11.1593	0	2.46749e-05
60.1858	0.00935127	-11.1065	0	-5.16839e-05
60.1864	0.00933218	-11.0275	0	-5.16839e-05
60.1868	0.00935127	-10.9734	0	-0.000108953
60.1872	0.00935127	-10.9225	0	0.000120123
60.1876	0.00944673	-10.8601	0	-1.35045e-05
60.1882	0.00942764	-10.7901	0	-5.16839e-05
60.1886	0.00944673	-10.7373	0	-0.000108953
60.1892	0.00929399	-10.6666	0	5.58521e-06
60.1898	0.00942764	-10.5883	0	5.58521e-06
60.1904	0.00942764	-10.5157	0	4.37646e-05
60.191	0.00929399	-10.4457	0	-1.35045e-05
60.1914	0.00933218	-10.3865	0	-7.07736e-05
60.192	0.00933218	-10.3228	0	-0.000108953
60.1926	0.00931308	-10.2477	0	-7.07736e-05
60.1932	0.00931308	-10.1821	0	-8.98633e-05
60.1936	0.00938945	-10.1293	0	-3.25942e-05
60.1942	0.00929399	-10.0688	0	-0.000108953
60.1948	0.00944673	-9.99689	0	-5.16839e-05
60.1954	0.00935127	-9.93259	0	-0.000108953
60.196	0.00931308	-9.86257	0	5.58521e-06
60.1966	0.00937036	-9.804	0	-1.35045e-05
60.1972	0.00948491	-9.73907	0	-0.000128043
60.1978	0.00925581	-9.67731	0	-7.07736e-05
60.1984	0.00925581	-9.62066	0	-0.000108953
60.1988	0.00933218	-9.56527	0	-0.000128043
60.1994	0.00938945	-9.50671	0	-1.35045e-05
60.2	0.00940854	-9.44878	0	4.37646e-05
60.2006	0.00935127	-9.39785	0	-3.25942e-05
60.2012	0.00942764	-9.33291	0	-5.16839e-05
60.2018	0.0092749	-9.2788	0	-3.25942e-05
60.2024	0.00938945	-9.21578	0	-1.35045e-05
60.2032	0.00938945	-9.14894	0	-8.98633e-05
60.2038	0.00935127	-9.08273	0	2.46749e-05
60.2044	0.00935127	-9.02926	0	-3.25942e-05
60.205	0.00933218	-8.97642	0	-0.000147132
60.2058	0.00923672	-8.91148	0	-1.35045e-05
60.2064	0.00933218	-8.85801	0	-7.07736e-05
60.207	0.00923672	-8.80645	0	6.28543e-05
60.2078	0.00923672	-8.73578	0	-5.16839e-05
60.2086	0.00937036	-8.66321	0	-5.16839e-05
60.2094	0.00935127	-8.60146	0	-5.16839e-05
60.21	0.00938945	-8.5499	0	-0.000147132
60.2108	0.00923672	-8.49578	0	-5.16839e-05
60.2116	0.00937036	-8.42894	0	-5.16839e-05
60.2124	0.00933218	-8.36528	0	2.46749e-05
60.2132	0.00925581	-8.30671	0	2.46749e-05
60.214	0.00938945	-8.24178	0	-0.000128043
60.2148	0.00940854	-8.18067	0	-0.000185312
60.2156	0.00946582	-8.12656	0	6.28543e-05
60.2162	0.00942764	-8.07181	0	2.46749e-05
60.217	0.00942764	-8.02088	0	-0.000128043
60.218	0.0092749	-7.95085	0	-0.000204402
60.219	0.00946582	-7.88401	0	-5.16839e-05
60.2198	0.00937036	-7.83117	0	-5.16839e-05
60.2208	0.00929399	-7.77452	0	-7.07736e-05
60.2214	0.00938945	-7.72422	0	5.58521e-06
60.2224	0.00935127	-7.66247	0	5.58521e-06
60.2232	0.00938945	-7.60836	0	-5.16839e-05
60.2242	0.00937036	-7.54789	0	2.46749e-05
60.225	0.00942764	-7.4925	0	-3.25942e-05
60.226	0.00944673	-7.43648	0	-3.25942e-05
60.227	0.00937036	-7.37728	0	-3.25942e-05
60.228	0.00935127	-7.32062	0	6.28543e-05
60.229	0.00933218	-7.26333	0	-7.07736e-05
60.23	0.00940854	-7.2124	0	0.000101034
60.2308	0.0095231	-7.15701	0	5.58521e-06
60.232	0.00933218	-7.10163	0	0.000120123
60.233	0.00938945	-7.04497	0	-7.07736e-05
60.234	0.0092749	-6.9915	0	-7.07736e-05
60.235	0.00938945	-6.9342	0	-0.000108953
60.2362	0.00935127	-6.88264	0	-3.25942e-05
60.2372	0.00942764	-6.82725	0	-0.000147132
60.2384	0.00937036	-6.77251	0	5.58521e-06
60.2396	0.00921763	-6.71967	0	6.28543e-05
60.2408	0.00935127	-6.66174	0	-0.000128043
60.2418	0.00938945	-6.61017	0	2.46749e-05
60.2432	0.00937036	-6.55797	0	-1.35045e-05
60.244	0.00937036	-6.5045	0	5.58521e-06
60.2454	0.00938945	-6.45421	0	5.58521e-06
60.2466	0.00935127	-6.39182	0	5.58521e-06
60.2482	0.00937036	-6.33071	0	-0.000147132
60.2494	0.00937036	-6.28041	0	-3.25942e-05
60.2508	0.00940854	-6.22694	0	-0.000204402
60.2522	0.00933218	-6.1741	0	-8.98633e-05
60.2534	0.00933218	-6.11872	0	-0.000108953
60.255	0.00940854	-6.06142	0	-0.000108953
60.2566	0.00938945	-6.00604	0	-7.07736e-05
60.2578	0.00937036	-5.95384	0	-0.000108953
60.2594	0.00938945	-5.90164	0	2.46749e-05
60.261	0.00938945	-5.83989	0	5.58521e-06
60.2626	0.00935127	-5.7896	0	-3.25942e-05
60.2642	0.00938945	-5.73803	0	-5.16839e-05
60.2658	0.00937036	-5.68647	0	-8.98633e-05
60.2674	0.0092749	-5.62917	0	-0.000128043
60.2694	0.00940854	-5.56615	0	-5.16839e-05
60.2712	0.00937036	-5.50631	0	5.58521e-06
60.2732	0.00944673	-5.44965	0	-3.25942e-05
60.275	0.00919853	-5.39427	0	-1.35045e-05
60.2772	0.00929399	-5.33506	0	-3.25942e-05
60.2792	0.00940854	-5.27713	0	-3.25942e-05
60.2812	0.00935127	-5.22429	0	-0.000108953
60.283	0.00938945	-5.17337	0	-0.000166222
60.285	0.00929399	-5.12244	0	-8.98633e-05
60.287	0.00929399	-5.0696	0	-0.000128043
60.289	0.00937036	-5.01613	0	-0.000108953
60.2914	0.00942764	-4.96392	0	-1.35045e-05
60.2938	0.00935127	-4.90599	0	-7.07736e-05
60.2962	0.00940854	-4.84997	0	-1.35045e-05
60.2986	0.0092749	-4.79777	0	0.000120123
60.301	0.00938945	-4.74302	0	6.28543e-05
60.3034	0.00935127	-4.6921	0	-0.000128043
60.3056	0.00933218	-4.6418	0	6.28543e-05
60.3082	0.0092749	-4.59088	0	-0.000204402
60.3108	0.00938945	-4.53804	0	-5.16839e-05
60.3132	0.00937036	-4.4852	0	-0.000147132
60.3162	0.00933218	-4.43364	0	5.58521e-06
60.319	0.00925581	-4.37952	0	-8.98633e-05
60.3222	0.00935127	-4.32159	0	-0.000108953
60.325	0.00931308	-4.26812	0	-5.16839e-05
60.3282	0.00933218	-4.21719	0	-3.25942e-05
60.3312	0.00937036	-4.16563	0	-7.07736e-05
60.3348	0.00933218	-4.11088	0	-5.16839e-05
60.3376	0.0092749	-4.05358	0	-1.35045e-05
60.3418	0.00940854	-4.00075	0	-3.25942e-05
60.345	0.00933218	-3.94982	0	0.000101034
60.3484	0.00938945	-3.89825	0	-7.07736e-05
60.352	0.00938945	-3.84351	0	2.46749e-05
60.356	0.00938945	-3.79003	0	-0.000108953
60.3602	0.00938945	-3.73465	0	-0.000185312
60.3644	0.0092749	-3.68372	0	5.58521e-06
60.3686	0.00942764	-3.62834	0	5.58521e-06
60.373	0.00938945	-3.57422	0	-0.000108953
60.3732	0.00933218	-3.63767	0	-0.000108953
60.4034	0.00935127	-3.28001	0	-5.16839e-05
60.4086	0.00935127	-3.22921	0	5.58521e-06
60.4142	0.00929399	-3.1774	0	2.46749e-05
60.4198	0.00933218	-3.12699	0	-8.98633e-05
60.4256	0.00931308	-3.07677	0	-5.16839e-05
60.4318	0.00931308	-3.02591	0	-8.98633e-05
60.438	0.0092749	-2.97448	0	-0.000147132
60.4446	0.00929399	-2.92305	0	-0.000128043
60.4514	0.00937036	-2.87257	0	-0.000108953
60.4584	0.00931308	-2.82133	0	-7.07736e-05
60.4658	0.00931308	-2.77054	0	-1.35045e-05
60.4734	0.00925581	-2.72045	0	-7.07736e-05
60.481	0.00925581	-2.67022	0	-8.98633e-05
60.4894	0.0092749	-2.6186	0	-3.25942e-05
60.498	0.00935127	-2.56749	0	-0.000128043
60.507	0.00935127	-2.51733	0	-0.000108953
60.5164	0.00935127	-2.46673	0	-5.16839e-05
60.526	0.00938945	-2.41632	0	-1.35045e-05
60.5364	0.00937036	-2.36508	0	-0.000108953
60.547	0.00929399	-2.31454	0	-7.07736e-05
60.558	0.00938945	-2.26438	0	-5.16839e-05
60.5698	0.0092749	-2.21403	0	-3.25942e-05
60.582	0.00938945	-2.16394	0	-1.35045e-05
60.595	0.00923672	-2.11384	0	4.37646e-05
60.6086	0.00935127	-2.06356	0	-1.35045e-05
60.6228	0.00944673	-2.0134	0	4.37646e-05
60.6382	0.00931308	-1.96305	0	-0.000108953
60.6538	0.00942764	-1.9129	0	2.46749e-05
60.6712	0.0092749	-1.86274	0	-8.98633e-05
60.6892	0.00946582	-1.81271	0	6.28543e-05
60.7088	0.00940854	-1.7616	0	-3.25942e-05
60.7298	0.00937036	-1.7108	0	8.1944e-05
60.752	0.00937036	-1.66052	0	6.28543e-05
60.7754	0.00933218	-1.61042	0	-0.000128043
60.801	0.00935127	-1.55982	0	-1.35045e-05
60.8288	0.0092749	-1.50922	0	-3.25942e-05
60.859	0.00931308	-1.45919	0	-0.000128043
60.891	0.0092749	-1.40909	0	-5.16839e-05
60.9266	0.00923672	-1.35894	0	-0.000204402
60.965	0.00933218	-1.30814	0	-0.000128043
61.0076	0.00929399	-1.25786	0	-7.07736e-05
61.0546	0.00940854	-1.2077	0	5.58521e-06
61.1074	0.00942764	-1.15684	0	-1.35045e-05
61.166	0.00923672	-1.10675	0	-0.000128043
61.232	0.00929399	-1.05646	0	5.58521e-06
61.3066	0.00942764	-1.00611	0	-8.98633e-05
61.3912	0.00931308	-0.956083	0	0.000139213
61.4916	0.00937036	-0.905862	0	6.28543e-05
61.606	0.00931308	-0.855832	0	-0.000108953
61.7448	0.00933218	-0.805547	0	-5.16839e-05
61.9096	0.0092749	-0.75469	0	5.58521e-06
62.113	0.00944673	-0.704341	0	4.37646e-05
62.3676	0.00935127	-0.654183	0	-8.98633e-05
62.6882	0.00937036	-0.60409	0	-8.98633e-05
63.104	0.00935127	-0.554059	0	-3.25942e-05
63.654	0.00931308	-0.503902	0	-5.16839e-05
64.3998	0.00919853	-0.453681	0	-5.16839e-05
65.523	0.00937036	-0.403505	0	-0.000108953
67.031	0.00948491	-0.353443	0	-0.000128043
69.3004	0.00944673	-0.303406	0	8.1944e-05
72.9114	0.00938945	-0.253382	0	-0.000108953
78.7174	0.00933218	-0.203345	0	-7.07736e-05
88.7174	0.00933218	-0.155899	0	-0.000108953
98.7174	0.00938945	-0.129805	0	-0.000223491
108.717	0.00929399	-0.112628	0	8.1944e-05
118.717	0.00937036	-0.100262	0	-0.000128043
128.717	0.00937036	-0.0906705	0	-0.000108953
138.717	0.00929399	-0.0828295	0	-7.07736e-05
148.717	0.00931308	-0.0762806	0	-1.35045e-05
158.717	0.00931308	-0.0708645	0	-1.35045e-05
168.717	0.00942764	-0.0662312	0	-3.25942e-05
178.717	0.00946582	-0.0623553	0	-3.25942e-05
188.717	0.00938945	-0.0592813	0	-7.07736e-05
198.717	0.00933218	-0.0558318	0	-5.16839e-05
208.717	0.00946582	-0.0528979	0	-1.35045e-05
218.717	0.00935127	-0.0504348	0	-1.35045e-05
228.717	0.00931308	-0.04794	0	-0.000128043
238.717	0.00935127	-0.0459289	0	0.000101034
248.717	0.0092749	-0.0440736	0	5.58521e-06
258.717	0.00942764	-0.0418193	0	-8.98633e-05
268.717	0.00935127	-0.0398316	0	2.46749e-05
278.717	0.00933218	-0.0385743	0	5.58521e-06
288.717	0.00933218	-0.0369677	0	2.46749e-05
298.717	0.00940854	-0.0352065	0	-0.000108953
308.717	0.00937036	-0.0336419	0	-1.35045e-05
318.717	0.00937036	-0.0322739	0	2.46749e-05
328.717	0.00931308	-0.0308684	0	-0.000185312
338.717	0.00933218	-0.0295755	0	-1.35045e-05
348.717	0.00933218	-0.0282082	0	-3.25942e-05
358.717	0.00938945	-0.0271284	0	4.37646e-05
368.717	0.00931308	-0.0258724	0	8.1944e-05
378.717	0.00935127	-0.0248506	0	-1.35045e-05
388.717	0.00944673	-0.0240266	0	8.1944e-05
398.717	0.00935127	-0.0229335	0	-5.16839e-05
408.717	0.00935127	-0.0220433	0	-7.07736e-05
418.717	0.00931308	-0.0211252	0	-1.35045e-05
428.717	0.00938945	-0.0203534	0	-0.000108953
438.717	0.00940854	-0.0195981	0	0.000101034
448.717	0.00935127	-0.0188028	0	-7.07736e-05
458.717	0.00933218	-0.0181214	0	8.1944e-05
468.717	0.00933218	-0.0173419	0	-0.000128043
478.717	0.00931308	-0.0167515	0	-3.25942e-05
488.717	0.00938945	-0.016203	0	-0.000147132
498.717	0.00929399	-0.015708	0	-3.25942e-05
508.717	0.00933218	-0.0151462	0	2.46749e-05
518.717	0.00931308	-0.0146098	0	-1.35045e-05
528.717	0.00933218	-0.0140346	0	5.58521e-06
538.717	0.00940854	-0.0136318	0	4.37646e-05
548.717	0.00935127	-0.0131476	0	5.58521e-06
558.717	0.00917944	-0.0128511	0	-7.07736e-05
568.717	0.00940854	-0.0123217	0	0.000120123
578.717	0.00933218	-0.0119845	0	2.46749e-05
588.717	0.00933218	-0.011604	0	5.58521e-06
598.717	0.00929399	-0.011284	0	2.46749e-05
608.717	0.00942764	-0.0109805	0	4.37646e-05
618.717	0.00940854	-0.0107336	0	5.58521e-06
628.717	0.00937036	-0.0104269	0	4.37646e-05
638.717	0.00929399	-0.0102049	0	-3.25942e-05
648.717	0.00931308	-0.00990646	0	5.58521e-06
658.717	0.00942764	-0.00963032	0	-1.35045e-05
668.717	0.00933218	-0.00931982	0	6.28543e-05
678.717	0.00929399	-0.0091073	0	-1.35045e-05
688.717	0.0092749	-0.00900168	0	5.58521e-06
698.717	0.00937036	-0.00852384	0	2.46749e-05
708.717	0.00931308	-0.00844367	0	-3.25942e-05
718.717	0.00946582	-0.00816498	0	-7.07736e-05
728.717	0.00931308	-0.00796456	0	-0.000185312
738.717	0.00938945	-0.00782967	0	0.000101034
748.717	0.00938945	-0.00764006	0	-5.16839e-05
758.717	0.00933218	-0.00754017	0	-5.16839e-05
768.717	0.0092749	-0.00723348	0	5.58521e-06
778.717	0.00937036	-0.00716349	0	-1.35045e-05
788.717	0.00933218	-0.00696943	0	-5.16839e-05
798.717	0.00937036	-0.00685236	0	-3.25942e-05
808.717	0.00923672	-0.00666847	0	2.46749e-05
818.717	0.00944673	-0.00649604	0	0.000101034
828.717	0.00937036	-0.00641778	0	5.58521e-06
838.717	0.00931308	-0.00619509	0	8.1944e-05
848.717	0.00935127	-0.00612637	0	4.37646e-05
858.717	0.00942764	-0.00601948	0	-3.25942e-05
868.717	0.00942764	-0.0058216	0	-0.000108953
878.717	0.00931308	-0.00576815	0	5.58521e-06
888.717	0.00935127	-0.00560081	0	-8.98633e-05
898.717	0.00938945	-0.00544556	0	8.1944e-05
908.717	0.00940854	-0.00531703	0	5.58521e-06
918.717	0.00933218	-0.00535076	0	-5.16839e-05
928.717	0.00938945	-0.00524259	0	2.46749e-05
938.717	0.0092749	-0.00517769	0	5.58521e-06
948.717	0.00929399	-0.00503644	0	-8.98633e-05
958.717	0.00933218	-0.00496327	0	-7.07736e-05
968.717	0.00935127	-0.00485828	0	-5.16839e-05
978.717	0.00942764	-0.00486655	0	-0.000108953
988.717	0.00935127	-0.00464322	0	4.37646e-05
998.717	0.00933218	-0.0045955	0	-0.000128043
1008.72	0.00942764	-0.00458488	0	-1.35045e-05
1018.72	0.0092749	-0.00451301	0	-5.16839e-05
1028.72	0.00935127	-0.00443854	0	-1.35045e-05
1038.72	0.00935127	-0.0043628	0	-7.07736e-05
1048.72	0.00935127	-0.00428228	0	-7.07736e-05
1058.72	0.00925581	-0.00420979	0	0.000139213
1068.72	0.00933218	-0.00413251	0	-5.16839e-05
1078.72	0.00937036	-0.00407313	0	-5.16839e-05
1088.72	0.00923672	-0.00402024	0	5.58521e-06
1098.72	0.00929399	-0.00393342	0	-7.07736e-05
1108.72	0.00935127	-0.00391954	0	2.46749e-05
1118.72	0.00931308	-0.00385163	0	2.46749e-05
1128.72	0.00935127	-0.00376551	0	6.28543e-05
1138.72	0.00935127	-0.00374991	0	-3.25942e-05
1148.72	0.00935127	-0.00371306	0	-7.07736e-05
1158.72	0.0092749	-0.00364101	0	-3.25942e-05
1168.72	0.00935127	-0.00358022	0	2.46749e-05
1178.72	0.00931308	-0.00352816	0	-7.07736e-05
1188.72	0.00948491	-0.0034927	0	-1.35045e-05
1198.72	0.00940854	-0.00344051	0	-8.98633e-05
1208.72	0.00921763	-0.00340245	0	-0.000128043
1218.72	0.00931308	-0.00337622	0	-8.98633e-05
1228.72	0.00935127	-0.00332187	0	-0.000185312
1238.72	0.00935127	-0.00326401	0	-1.35045e-05
1248.72	0.00940854	-0.00322856	0	-1.35045e-05
1258.72	0.00937036	-0.00318687	0	2.46749e-05
1268.72	0.00937036	-0.00314766	0	0.000101034
1278.72	0.00938945	-0.00312824	0	-5.16839e-05
1288.72	0.0092749	-0.00306058	0	-3.25942e-05
1298.72	0.00931308	-0.00302087	0	2.46749e-05
1308.72	0.00931308	-0.00299089	0	6.28543e-05
1318.72	0.00933218	-0.00295512	0	-0.000108953
1328.72	0.00938945	-0.00293106	0	4.37646e-05
1338.72	0.00940854	-0.00289325	0	2.46749e-05
1348.72	0.00935127	-0.00288325	0	-7.07736e-05
1358.72	0.00940854	-0.00288542	0	-5.16839e-05
1368.72	0.00935127	-0.00280153	0	-3.25942e-05
1378.72	0.00931308	-0.0027753	0	2.46749e-05
1388.72	0.00933218	-0.00274214	0	-3.25942e-05
1398.72	0.00940854	-0.00270841	0	-5.16839e-05
1408.72	0.00923672	-0.00267957	0	4.37646e-05
1418.72	0.00933218	-0.00263266	0	-7.07736e-05
1428.72	0.00933218	-0.00264533	0	5.58521e-06
1438.72	0.00929399	-0.00258168	0	-0.000128043
1448.72	0.00933218	-0.00255768	0	-0.000147132
1458.72	0.00935127	-0.00254546	0	4.37646e-05
1468.72	0.00929399	-0.00254445	0	5.58521e-06
1478.72	0.00933218	-0.00253687	0	4.37646e-05
1488.72	0.00933218	-0.00246151	0	8.1944e-05
1498.72	0.00933218	-0.00245317	0	-0.000147132
1508.72	0.00937036	-0.00243993	0	-0.000108953
1518.72	0.00935127	-0.00241435	0	-7.07736e-05
1528.72	0.00933218	-0.00241886	0	4.37646e-05
1538.72	0.00931308	-0.00237545	0	-0.000108953
1548.72	0.00942764	-0.00234102	0	8.1944e-05
1558.72	0.00933218	-0.00231569	0	5.58521e-06
1568.72	0.00937036	-0.00229608	0	-5.16839e-05
1578.72	0.00929399	-0.00226916	0	-1.35045e-05
1588.72	0.00923672	-0.00224714	0	2.46749e-05
1598.72	0.00938945	-0.00224478	0	-0.000128043
1608.72	0.00929399	-0.00224548	0	-8.98633e-05
1618.72	0.00935127	-0.00217769	0	-0.000108953
1628.72	0.00929399	-0.0021481	0	-5.16839e-05
1638.72	0.00931308	-0.00213288	0	-1.35045e-05
1648.72	0.00921763	-0.00215669	0	-7.07736e-05
1658.72	0.00931308	-0.0021129	0	5.58521e-06
1668.72	0.00931308	-0.00210902	0	8.1944e-05
1678.72	0.00929399	-0.00206592	0	-0.000166222
1688.72	0.0092749	-0.00205498	0	-5.16839e-05
1698.72	0.00929399	-0.00204683	0	-3.25942e-05
1708.72	0.00925581	-0.00204817	0	-3.25942e-05
1718.72	0.00933218	-0.00200527	0	-7.07736e-05
1728.72	0.00935127	-0.00200387	0	-3.25942e-05
1738.72	0.00937036	-0.00200183	0	-7.07736e-05
1748.72	0.00931308	-0.00198604	0	-5.16839e-05
1758.72	0.00929399	-0.00195403	0	-1.35045e-05
1768.72	0.00929399	-0.00196383	0	0.000120123
1778.72	0.00935127	-0.00195155	0	5.58521e-06
1788.72	0.00929399	-0.00189362	0	5.58521e-06
1798.72	0.00931308	-0.0018611	0	2.46749e-05
1808.72	0.00938945	-0.00189401	0	-3.25942e-05
1818.72	0.00940854	-0.00186772	0	-0.000128043
1828.72	0.00917944	-0.00187198	0	5.58521e-06
1838.72	0.00933218	-0.00184729	0	-8.98633e-05
1848.72	0.0092749	-0.00184531	0	-7.07736e-05
1858.72	0.00937036	-0.00181483	0	0.000101034
1860.05	0.00944673	-0.00180891	0	-3.25942e-05