File: EXPERIMENTAL/DATA/Electrochemical-cycling/S-series/2024-07-02_S21_Icell_t1800_C0000_J01_deltaX-110,1mm_plating-stripping_02_MB_C03.txt
time/s	Ewe/V	I/mA	error	Ece/V
60.053	2.54917	-0.0250202	0	-0.000804487
60.1432	0.00915728	-6.93533	0	4.896e-05
60.1434	0.00913819	-6.88526	0	1.07886e-05
60.1438	0.00923363	-6.78677	0	-8.29709e-06
60.1442	0.00930998	-6.6907	0	6.80457e-05
60.1446	0.00917637	-6.59667	0	1.07886e-05
60.145	0.00921454	-6.50581	0	2.98743e-05
60.1454	0.00923363	-6.41687	0	6.80457e-05
60.1458	0.00910002	-6.3297	0	-6.55542e-05
60.1462	0.00923363	-6.24445	0	-8.29709e-06
60.1466	0.00908093	-6.16187	0	-8.29709e-06
60.147	0.00921454	-6.08106	0	0.000106217
60.1474	0.00917637	-6.00262	0	2.98743e-05
60.1478	0.00915728	-5.92461	0	0.000144388
60.1482	0.00929089	-5.84992	0	0.000106217
60.1486	0.00923363	-5.77656	0	2.98743e-05
60.149	0.00921454	-5.70378	0	0.000144388
60.1494	0.00921454	-5.6343	0	2.98743e-05
60.1498	0.00921454	-5.56546	0	1.07886e-05
60.1502	0.00929089	-5.49796	0	6.80457e-05
60.1506	0.00915728	-5.433	0	-8.29709e-06
60.151	0.00915728	-5.36886	0	6.80457e-05
60.1514	0.00915728	-5.30632	0	0.000106217
60.1518	0.00921454	-5.24448	0	8.71314e-05
60.1522	0.00923363	-5.18557	0	6.80457e-05
60.1526	0.00915728	-5.12703	0	1.07886e-05
60.153	0.0092718	-5.06926	0	8.71314e-05
60.1534	0.00921454	-5.01302	0	1.07886e-05
60.1538	0.0092718	-4.95773	0	-2.73828e-05
60.1542	0.00921454	-4.9046	0	-8.46399e-05
60.1546	0.00915728	-4.85186	0	4.896e-05
60.155	0.00923363	-4.8009	0	0.00018256
60.1556	0.00923363	-4.72608	0	-2.73828e-05
60.1562	0.00921454	-4.65304	0	4.896e-05
60.1568	0.00923363	-4.58292	0	8.71314e-05
60.1574	0.00915728	-4.51434	0	-0.000103726
60.158	0.00915728	-4.44792	0	4.896e-05
60.1586	0.00925271	-4.38283	0	6.80457e-05
60.1592	0.00913819	-4.3215	0	0.000106217
60.1598	0.00930998	-4.26016	0	-0.000103726
60.1604	0.00921454	-4.20246	0	-4.64685e-05
60.161	0.00915728	-4.1445	0	2.98743e-05
60.1616	0.00925271	-4.08851	0	1.07886e-05
60.1622	0.00925271	-4.03449	0	8.71314e-05
60.1628	0.00921454	-3.98162	0	-6.55542e-05
60.1634	0.00921454	-3.93047	0	1.07886e-05
60.1642	0.00923363	-3.86455	0	1.07886e-05
60.165	0.00932906	-3.80068	0	0.000106217
60.1658	0.0092718	-3.73883	0	-8.29709e-06
60.1666	0.00913819	-3.67979	0	4.896e-05
60.1674	0.00917637	-3.62196	0	4.896e-05
60.1682	0.0092718	-3.56559	0	2.98743e-05
60.169	0.00919545	-3.511	0	-2.73828e-05
60.1698	0.00929089	-3.45883	0	2.98743e-05
60.1706	0.00930998	-3.4085	0	1.07886e-05
60.1716	0.00913819	-3.3473	0	-2.73828e-05
60.1726	0.00934815	-3.28832	0	2.98743e-05
60.1736	0.00936724	-3.23137	0	-4.64685e-05
60.1746	0.00925271	-3.17704	0	4.896e-05
60.1756	0.00925271	-3.12461	0	8.71314e-05
60.1766	0.00921454	-3.07346	0	8.71314e-05
60.1778	0.00921454	-3.01429	0	0.000106217
60.179	0.00915728	-2.9576	0	4.896e-05
60.1802	0.0092718	-2.90352	0	0.000106217
60.1814	0.00936724	-2.84989	0	-6.55542e-05
60.1828	0.00921454	-2.79218	0	8.71314e-05
60.1842	0.00910002	-2.73613	0	-2.73828e-05
60.1856	0.00923363	-2.68332	0	8.71314e-05
60.187	0.00919545	-2.63071	0	6.80457e-05
60.1886	0.00921454	-2.57364	0	2.98743e-05
60.1902	0.00930998	-2.52032	0	-4.64685e-05
60.1918	0.00929089	-2.46834	0	-6.55542e-05
60.1936	0.00929089	-2.41241	0	6.80457e-05
60.1954	0.00921454	-2.35859	0	1.07886e-05
60.1974	0.00936724	-2.30254	0	0.00018256
60.1994	0.00921454	-2.2496	0	-4.64685e-05
60.2014	0.00936724	-2.19788	0	-4.64685e-05
60.2036	0.0092718	-2.14399	0	-8.29709e-06
60.206	0.00923363	-2.08902	0	-0.000103726
60.2084	0.0092718	-2.03621	0	2.98743e-05
60.211	0.00913819	-1.98226	0	2.98743e-05
60.2136	0.00925271	-1.93117	0	8.71314e-05
60.2164	0.00915728	-1.87919	0	4.896e-05
60.2192	0.00925271	-1.82861	0	-2.73828e-05
60.2224	0.00917637	-1.7751	0	4.896e-05
60.2258	0.0092718	-1.72204	0	6.80457e-05
60.2292	0.00923363	-1.67171	0	6.80457e-05
60.2328	0.00932906	-1.62158	0	0.000125303
60.2368	0.00913819	-1.56909	0	-2.73828e-05
60.2408	0.00925271	-1.51908	0	8.71314e-05
60.2452	0.00919545	-1.46863	0	6.80457e-05
60.2498	0.00929089	-1.41798	0	-2.73828e-05
60.2548	0.00936724	-1.36727	0	8.71314e-05
60.2602	0.00915728	-1.31593	0	8.71314e-05
60.2658	0.00917637	-1.26592	0	2.98743e-05
60.272	0.00923363	-1.21585	0	1.07886e-05
60.2786	0.00921454	-1.16463	0	0.000106217
60.2858	0.00925271	-1.11386	0	-4.64685e-05
60.2938	0.00923363	-1.06277	0	0.000106217
60.3024	0.00929089	-1.01257	0	-4.64685e-05
60.3114	0.00921454	-0.961802	0	0.000144388
60.3218	0.00925271	-0.911285	0	8.71314e-05
60.3334	0.00919545	-0.860959	0	2.98743e-05
60.3462	0.00921454	-0.810251	0	0.000125303
60.3602	0.00925271	-0.760116	0	0.000106217
60.376	0.00917637	-0.709726	0	-8.29709e-06
60.3944	0.00921454	-0.659464	0	-4.64685e-05
60.417	0.00925271	-0.608947	0	0.000106217
60.4426	0.00917637	-0.558239	0	-8.29709e-06
60.4728	0.00925271	-0.508231	0	-8.29709e-06
60.5106	0.00925271	-0.457905	0	0.000144388
60.5738	0.00917637	-0.395825	0	6.80457e-05
60.6408	0.00932906	-0.345808	0	8.71314e-05
60.7328	0.00923363	-0.295754	0	-2.73828e-05
60.8664	0.00921454	-0.245743	0	0.000125303
61.0706	0.00923363	-0.195568	0	-0.000141897
61.4294	0.0091191	-0.145564	0	-2.73828e-05
62.1506	0.0092718	-0.0954708	0	-8.29709e-06
64.3064	0.00913819	-0.0453779	0	8.71314e-05
74.3064	0.00932906	-0.0129728	0	4.896e-05
84.3064	0.00915728	-0.00717199	0	-2.73828e-05
94.3064	0.00913819	-0.0047752	0	-8.29709e-06
104.306	0.0092718	-0.00353371	0	4.896e-05
114.306	0.00923363	-0.00279764	0	0.000125303
124.306	0.00915728	-0.0022956	0	-6.55542e-05
134.306	0.0092718	-0.00193905	0	6.80457e-05
144.306	0.00929089	-0.00167104	0	-8.29709e-06
154.306	0.0092718	-0.00148468	0	-8.46399e-05
164.306	0.0092718	-0.00134695	0	1.07886e-05
174.306	0.00921454	-0.00125587	0	-8.29709e-06
184.306	0.00929089	-0.00111674	0	-2.73828e-05
194.306	0.00915728	-0.00103598	0	0.000125303
204.306	0.00921454	-0.000951773	0	2.98743e-05
214.306	0.00921454	-0.000884245	0	0.000125303
224.306	0.00917637	-0.000838929	0	0.000144388
234.306	0.00919545	-0.000772673	0	-2.73828e-05
244.306	0.00921454	-0.00073945	0	0.000163474
254.306	0.00919545	-0.000703171	0	-4.64685e-05
264.306	0.00925271	-0.000676694	0	-6.55542e-05
274.306	0.00934815	-0.000643917	0	1.07886e-05
284.306	0.00921454	-0.000616549	0	6.80457e-05
294.306	0.00921454	-0.000570596	0	-8.29709e-06
304.306	0.00932906	-0.000577661	0	1.07886e-05
314.306	0.00925271	-0.000494921	0	-2.73828e-05
324.306	0.00919545	-0.000530754	0	0.000163474
334.306	0.00929089	-0.000529035	0	-2.73828e-05
344.306	0.00923363	-0.00048792	0	-2.73828e-05
354.306	0.00925271	-0.000461952	0	-8.46399e-05
364.306	0.00925271	-0.000430447	0	4.896e-05
374.306	0.00921454	-0.000460934	0	0.000220731
384.306	0.00923363	-0.000417273	0	-8.46399e-05
394.306	0.00919545	-0.000411481	0	1.07886e-05
404.306	0.0092718	-0.000388377	0	-4.64685e-05
414.306	0.00932906	-0.000390541	0	8.71314e-05
424.306	0.00929089	-0.000389205	0	1.07886e-05
434.306	0.00919545	-0.000368265	0	-6.55542e-05
444.306	0.00932906	-0.000344334	0	0.000144388
454.306	0.00923363	-0.0003619	0	-2.73828e-05
464.306	0.00930998	-0.000352353	0	8.71314e-05
474.306	0.00925271	-0.000362919	0	2.98743e-05
484.306	0.00929089	-0.000342106	0	-6.55542e-05
494.306	0.00923363	-0.000304682	0	6.80457e-05
504.306	0.00919545	-0.000318175	0	4.896e-05
514.306	0.0092718	-0.000322758	0	-8.29709e-06
524.306	0.00917637	-0.000297745	0	6.80457e-05
534.306	0.0092718	-0.000268277	0	8.71314e-05
544.306	0.00925271	-0.000311747	0	6.80457e-05
554.306	0.00923363	-0.000296981	0	4.896e-05
564.306	0.00936724	-0.000303855	0	-4.64685e-05
574.306	0.00917637	-0.000268659	0	-6.55542e-05
584.306	0.00915728	-0.000307483	0	-2.73828e-05
594.306	0.00917637	-0.000249883	0	-6.55542e-05
604.306	0.00915728	-0.00027305	0	6.80457e-05
614.306	0.00929089	-0.000247146	0	1.07886e-05
624.306	0.00923363	-0.0002397	0	0.000144388
634.306	0.00932906	-0.000258221	0	-4.64685e-05
644.306	0.00923363	-0.000264267	0	1.07886e-05
654.306	0.00925271	-0.000221497	0	6.80457e-05
664.306	0.00925271	-0.000239254	0	6.80457e-05
674.306	0.0092718	-0.000247846	0	-8.29709e-06
684.306	0.0092718	-0.000241736	0	-2.73828e-05
694.306	0.00921454	-0.000236454	0	6.80457e-05
704.306	0.00929089	-0.000207367	0	-2.73828e-05
714.306	0.0092718	-0.000201257	0	4.896e-05
724.306	0.00915728	-0.000217423	0	-4.64685e-05
734.306	0.00929089	-0.000224743	0	-0.000141897
744.306	0.00919545	-0.000213414	0	0.000125303
754.306	0.00925271	-0.000213477	0	-8.29709e-06
764.306	0.0092718	-0.000191201	0	-8.46399e-05
774.306	0.0092718	-0.000206413	0	1.07886e-05
784.306	0.00925271	-0.000170771	0	4.896e-05
794.306	0.00934815	-0.000190692	0	6.80457e-05
804.306	0.00921454	-0.000195784	0	0.000163474
814.306	0.00919545	-0.000205713	0	1.07886e-05
824.306	0.00925271	-0.000170389	0	4.896e-05
834.306	0.00917637	-0.000210995	0	0.000144388
844.306	0.00923363	-0.0001842	0	-4.64685e-05
854.306	0.00929089	-0.000178281	0	-8.46399e-05
864.306	0.00929089	-0.000171344	0	-4.64685e-05
874.306	0.00917637	-0.000194829	0	-2.73828e-05
884.306	0.00913819	-0.000163579	0	4.896e-05
894.306	0.00921454	-0.000193238	0	0.000106217
904.306	0.0091191	-0.000189865	0	0.000125303
914.306	0.00917637	-0.000178281	0	-8.29709e-06
924.306	0.00925271	-0.000175035	0	2.98743e-05
934.306	0.00923363	-0.000177772	0	0.000239817
944.306	0.00921454	-0.000123991	0	4.896e-05
954.306	0.00921454	-0.000167398	0	0.00018256
964.306	0.00917637	-0.000166125	0	0.000106217
974.306	0.0092718	-0.000139393	0	-2.73828e-05
984.306	0.00925271	-0.000158169	0	4.896e-05
994.306	0.00917637	-0.000165615	0	1.07886e-05
1004.31	0.00925271	-0.00013602	0	-2.73828e-05
1014.31	0.00923363	-0.000161797	0	8.71314e-05
1024.31	0.00917637	-0.000156641	0	6.80457e-05
1034.31	0.00923363	-0.000139139	0	1.07886e-05
1044.31	0.00910002	-0.000130037	0	-2.73828e-05
1054.31	0.00919545	-0.000125455	0	2.98743e-05
1064.31	0.0092718	-0.000157914	0	8.71314e-05
1074.31	0.00923363	-0.000145631	0	2.98743e-05
1084.31	0.00915728	-0.000129401	0	1.07886e-05
1094.31	0.00908093	-0.000147731	0	0.000144388
1104.31	0.00915728	-0.000153459	0	2.98743e-05
1114.31	0.00930998	-0.00011629	0	4.896e-05
1124.31	0.00921454	-0.000160333	0	-2.73828e-05
1134.31	0.00925271	-0.000125773	0	-2.73828e-05
1144.31	0.0092718	-0.000144803	0	4.896e-05
1154.31	0.00923363	-0.000132774	0	2.98743e-05
1164.31	0.00915728	-0.000154032	0	8.71314e-05
1174.31	0.00913819	-0.000119981	0	4.896e-05
1184.31	0.00930998	-0.000143848	0	8.71314e-05
1194.31	0.00917637	-0.000144421	0	-2.73828e-05
1204.31	0.00917637	-0.000148049	0	0.000163474
1214.31	0.00917637	-0.0001252	0	-8.29709e-06
1224.31	0.00923363	-0.000137802	0	4.896e-05
1234.31	0.0091191	-0.000141303	0	0.000144388
1244.31	0.00923363	-0.000125455	0	-2.73828e-05
1254.31	0.00923363	-0.000107252	0	1.07886e-05
1264.31	0.00929089	-0.00013672	0	1.07886e-05
1274.31	0.00921454	-0.000127937	0	0.000125303
1284.31	0.00919545	-0.000135065	0	2.98743e-05
1294.31	0.00917637	-0.0001266	0	4.896e-05
1304.31	0.00919545	-0.000124818	0	4.896e-05
1314.31	0.00913819	-9.4268e-05	0	-2.73828e-05
1324.31	0.0092718	-0.000120427	0	1.07886e-05
1334.31	0.00936724	-0.000115271	0	-2.73828e-05
1344.31	0.00929089	-0.00014493	0	2.98743e-05
1354.31	0.00925271	-0.000107379	0	6.80457e-05
1364.31	0.00917637	-0.000122336	0	-2.73828e-05
1374.31	0.00919545	-9.07675e-05	0	2.98743e-05
1384.31	0.00923363	-9.94234e-05	0	-6.55542e-05
1394.31	0.00930998	-0.00013131	0	-2.73828e-05
1404.31	0.00929089	-0.000128637	0	4.896e-05
1414.31	0.0092718	-0.000119345	0	2.98743e-05
1424.31	0.00929089	-0.000115208	0	2.98743e-05
1434.31	0.00921454	-0.000118581	0	-2.73828e-05
1444.31	0.00921454	-0.000110243	0	-4.64685e-05
1454.31	0.00913819	-0.000116862	0	-8.29709e-06
1464.31	0.00925271	-0.000119154	0	-4.64685e-05
1474.31	0.00929089	-0.000111007	0	8.71314e-05
1484.31	0.0092718	-0.000123991	0	-4.64685e-05
1494.31	0.00925271	-0.00012921	0	4.896e-05
1504.31	0.00925271	-0.000115653	0	-6.55542e-05
1514.31	0.00923363	-9.85959e-05	0	6.80457e-05
1524.31	0.00921454	-0.000131501	0	-2.73828e-05
1534.31	0.00929089	-0.000117053	0	6.80457e-05
1544.31	0.00919545	-0.000112916	0	-2.73828e-05
1554.31	0.00908093	-0.000111643	0	6.80457e-05
1564.31	0.00925271	-9.9487e-05	0	-2.73828e-05
1574.31	0.00921454	-0.000131056	0	1.07886e-05
1584.31	0.00919545	-0.000113935	0	4.896e-05
1594.31	0.00923363	-0.0001252	0	4.896e-05
1604.31	0.00923363	-0.000113362	0	-8.29709e-06
1614.31	0.00917637	-0.000119536	0	-8.29709e-06
1624.31	0.00919545	-0.000128573	0	-8.29709e-06
1634.31	0.00923363	-0.000144676	0	0.000106217
1644.31	0.00919545	-8.21752e-05	0	1.07886e-05
1654.31	0.00921454	-9.87232e-05	0	0.000106217
1664.31	0.00915728	-9.09584e-05	0	6.80457e-05
1674.31	0.00915728	-0.000121254	0	-8.46399e-05
1684.31	0.00921454	-0.00011769	0	4.896e-05
1694.31	0.00913819	-0.000116544	0	-8.29709e-06
1704.31	0.00915728	-0.000117372	0	1.07886e-05
1714.31	0.0091191	-0.00011438	0	2.98743e-05
1724.31	0.00917637	-7.91839e-05	0	-8.46399e-05
1734.31	0.0091191	-0.000104706	0	-8.29709e-06
1744.31	0.00932906	-0.000114317	0	-0.000141897
1754.31	0.00913819	-0.000122591	0	4.896e-05
1764.31	0.0092718	-8.28753e-05	0	0.000106217
1774.31	0.00929089	-8.80307e-05	0	6.80457e-05
1784.31	0.00930998	-8.94309e-05	0	1.07886e-05
1794.31	0.00919545	-8.69487e-05	0	-0.000237325
1804.31	0.00921454	-8.24935e-05	0	4.896e-05
1814.31	0.00929089	-9.61137e-05	0	2.98743e-05
1824.31	0.00919545	-7.89929e-05	0	-8.29709e-06
1834.31	0.00913819	-9.54136e-05	0	4.896e-05
1844.31	0.0092718	-9.92324e-05	0	-8.46399e-05
1854.31	0.00938632	-8.16661e-05	0	0.000125303
1860.05	0.00915728	-9.12766e-05	0	-0.000180068