File: EXPERIMENTAL/DATA/Electrochemical-cycling/S-series/2024-06-19_S09_Icell_t1800_C0030_J01_02_MB_C09.txt
time/s	Ewe/V	I/mA	error	Ece/V
60.053	2.87676	-0.025008	0	-0.00166802
60.1432	0.00848606	-4.67948	0	2.44831e-05
60.144	0.00846697	-4.62939	0	5.39784e-06
60.145	0.00839062	-4.56842	0	2.44831e-05
60.146	0.00833336	-4.51019	0	-5.1858e-05
60.147	0.00839062	-4.4545	0	5.39784e-06
60.148	0.00840971	-4.40116	0	8.1739e-05
60.149	0.00837153	-4.34979	0	5.39784e-06
60.1502	0.0084288	-4.2906	0	0.000100824
60.1514	0.0084288	-4.23288	0	0.00011991
60.1526	0.0084288	-4.17935	0	-1.36875e-05
60.1538	0.0084288	-4.12658	0	0.000138995
60.155	0.0084288	-4.07642	0	8.1739e-05
60.1564	0.0084288	-4.02016	0	5.39784e-06
60.1578	0.00835245	-3.96574	0	8.1739e-05
60.1592	0.00835245	-3.91329	0	0.000138995
60.1608	0.00837153	-3.85766	0	-1.36875e-05
60.1624	0.0084288	-3.80267	0	0.000100824
60.164	0.00835245	-3.74971	0	4.35684e-05
60.1656	0.00848606	-3.6993	0	4.35684e-05
60.1674	0.00848606	-3.6445	0	4.35684e-05
60.1692	0.00833336	-3.59148	0	4.35684e-05
60.171	0.00829519	-3.54011	0	6.26537e-05
60.173	0.00844788	-3.48588	0	4.35684e-05
60.175	0.00829519	-3.43324	0	2.44831e-05
60.177	0.00835245	-3.38105	0	5.39784e-06
60.1792	0.0084288	-3.3272	0	5.39784e-06
60.1814	0.00831427	-3.27507	0	5.39784e-06
60.1838	0.00840971	-3.2197	0	2.44831e-05
60.1862	0.0084288	-3.16674	0	-1.36875e-05
60.1886	0.00837153	-3.11467	0	4.35684e-05
60.1912	0.00835245	-3.06108	0	8.1739e-05
60.1938	0.00840971	-3.00863	0	-3.27727e-05
60.1964	0.00844788	-2.95777	0	0.00011991
60.1992	0.00833336	-2.90507	0	5.39784e-06
60.202	0.0084288	-2.8537	0	-5.1858e-05
60.205	0.00839062	-2.80024	0	0.000100824
60.208	0.00831427	-2.749	0	-1.36875e-05
60.2112	0.00848606	-2.69699	0	-1.36875e-05
60.2144	0.00835245	-2.64562	0	-7.09433e-05
60.2176	0.00833336	-2.59553	0	6.26537e-05
60.221	0.00840971	-2.54543	0	-1.36875e-05
60.2246	0.00852423	-2.49362	0	-5.1858e-05
60.2282	0.00844788	-2.44327	0	0.00011991
60.232	0.00839062	-2.39254	0	-3.27727e-05
60.236	0.0084288	-2.34193	0	0.000100824
60.2402	0.00833336	-2.28986	0	-1.36875e-05
60.2446	0.0084288	-2.23761	0	-7.09433e-05
60.2492	0.0082761	-2.18579	0	-1.36875e-05
60.2538	0.00848606	-2.1357	0	-5.1858e-05
60.2586	0.00833336	-2.08566	0	2.44831e-05
60.2636	0.00833336	-2.03544	0	-1.36875e-05
60.2688	0.00852423	-1.98471	0	-1.36875e-05
60.2744	0.00837153	-1.93283	0	4.35684e-05
60.2802	0.0084288	-1.88134	0	8.1739e-05
60.2862	0.0084288	-1.8308	0	5.39784e-06
60.2926	0.00848606	-1.77956	0	8.1739e-05
60.299	0.00846697	-1.7294	0	0.000100824
60.3058	0.00840971	-1.67885	0	-3.27727e-05
60.3132	0.00835245	-1.6285	0	2.44831e-05
60.3208	0.0084288	-1.57847	0	-3.27727e-05
60.3288	0.00839062	-1.52812	0	2.44831e-05
60.3374	0.00835245	-1.47771	0	-5.1858e-05
60.3466	0.00831427	-1.4264	0	6.26537e-05
60.3562	0.00833336	-1.37618	0	-3.27727e-05
60.3664	0.00844788	-1.32615	0	4.35684e-05
60.3776	0.00829519	-1.27573	0	-7.09433e-05
60.3894	0.00840971	-1.22538	0	-5.1858e-05
60.402	0.00846697	-1.17522	0	2.44831e-05
60.4162	0.00837153	-1.12468	0	2.44831e-05
60.4314	0.00839062	-1.07388	0	5.39784e-06
60.448	0.00840971	-1.02328	0	4.35684e-05
60.4664	0.00840971	-0.973119	0	8.1739e-05
60.4868	0.00829519	-0.922578	0	-7.09433e-05
60.5092	0.00837153	-0.872545	0	0.000100824
60.5346	0.00837153	-0.822131	0	2.44831e-05
60.563	0.00829519	-0.772034	0	-7.09433e-05
60.5954	0.00835245	-0.721875	0	2.44831e-05
60.6322	0.00837153	-0.671397	0	2.44831e-05
60.6746	0.00848606	-0.621173	0	2.44831e-05
60.7228	0.00840971	-0.571141	0	4.35684e-05
60.7808	0.00833336	-0.520981	0	4.35684e-05
60.8494	0.00835245	-0.470694	0	0.000177165
60.9324	0.00837153	-0.42047	0	2.44831e-05
61.0462	0.00833336	-0.370452	0	-5.1858e-05
61.1798	0.0084288	-0.320311	0	-3.27727e-05
61.3556	0.00848606	-0.269967	0	0.000138995
61.5974	0.00846697	-0.219955	0	4.35684e-05
61.9666	0.00850514	-0.169954	0	8.1739e-05
62.576	0.00839062	-0.119941	0	-1.36875e-05
63.9474	0.00848606	-0.0698965	0	5.39784e-06
71.347	0.00848606	-0.0198832	0	0.000100824
81.347	0.00840971	-0.0102823	0	-3.27727e-05
91.347	0.00840971	-0.00878263	0	2.44831e-05
101.347	0.00839062	-0.00621094	0	5.39784e-06
111.347	0.00839062	-0.00498871	0	-3.27727e-05
121.347	0.00848606	-0.00437262	0	5.39784e-06
131.347	0.00833336	-0.00342585	0	6.26537e-05
141.347	0.00846697	-0.00307618	0	0.00015808
151.347	0.00848606	-0.00277684	0	6.26537e-05
161.347	0.00848606	-0.00254476	0	4.35684e-05
171.347	0.0084288	-0.00248259	0	6.26537e-05
181.347	0.00848606	-0.00228157	0	6.26537e-05
191.347	0.0084288	-0.00213705	0	6.26537e-05
201.347	0.0084288	-0.00198904	0	6.26537e-05
211.347	0.00839062	-0.0019681	0	6.26537e-05
221.347	0.00848606	-0.00184898	0	6.26537e-05
231.347	0.0084288	-0.00188512	0	-5.1858e-05
241.347	0.00848606	-0.00162912	0	6.26537e-05
251.347	0.00840971	-0.00155199	0	6.26537e-05
261.347	0.0084288	-0.00179011	0	-1.36875e-05
271.347	0.00844788	-0.00138177	0	-3.27727e-05
281.347	0.00846697	-0.00147741	0	0.000138995
291.347	0.00844788	-0.00190975	0	2.44831e-05
301.347	0.00831427	-0.00170586	0	6.26537e-05
311.347	0.0084288	-0.00147213	0	2.44831e-05
321.347	0.00852423	-0.0014818	0	5.39784e-06
331.347	0.00846697	-0.00132812	0	0.00011991
341.347	0.00850514	-0.00127448	0	0.00011991
351.347	0.00844788	-0.00140881	0	0.000138995
361.347	0.00844788	-0.00118443	0	-3.27727e-05
371.347	0.00848606	-0.00109191	0	-1.36875e-05
381.347	0.00840971	-0.000966992	0	2.44831e-05
391.347	0.00840971	-0.000938801	0	2.44831e-05
401.347	0.00848606	-0.000965528	0	-1.36875e-05
411.347	0.00840971	-0.000985637	0	6.26537e-05
421.347	0.0084288	-0.000924993	0	6.26537e-05
431.347	0.00837153	-0.00100288	0	2.44831e-05
441.347	0.00844788	-0.00102006	0	8.1739e-05
451.347	0.00846697	-0.00103998	0	8.1739e-05
461.347	0.00844788	-0.00100543	0	4.35684e-05
471.347	0.00837153	-0.000915384	0	-9.00286e-05
481.347	0.00840971	-0.000933583	0	0.000100824
491.347	0.00840971	-0.000802686	0	0.00011991
501.347	0.00850514	-0.000863903	0	0.000100824
511.347	0.0084288	-0.000908002	0	-7.09433e-05
521.347	0.00844788	-0.000747705	0	-1.36875e-05
531.347	0.00839062	-0.000707615	0	2.44831e-05
541.347	0.0084288	-0.000637362	0	5.39784e-06
551.347	0.00844788	-0.000632144	0	-1.36875e-05
561.347	0.00835245	-0.000587726	0	2.44831e-05
571.347	0.0084288	-0.000971955	0	-5.1858e-05
581.347	0.00839062	-0.00062438	0	5.39784e-06
591.347	0.00844788	-0.000659443	0	6.26537e-05
601.347	0.00840971	-0.000637553	0	2.44831e-05
611.347	0.00848606	-0.000718115	0	5.39784e-06
621.347	0.00848606	-0.000696288	0	4.35684e-05
631.347	0.00844788	-0.000695079	0	-1.36875e-05
641.347	0.00846697	-0.000594726	0	-3.27727e-05
651.347	0.00852423	-0.000525364	0	-7.09433e-05
661.347	0.00848606	-0.000542036	0	2.44831e-05
671.347	0.00840971	-0.00110565	0	-9.00286e-05
681.347	0.0085624	-0.00068827	0	0.00011991
691.347	0.00848606	-0.000586072	0	-5.1858e-05
701.347	0.00844788	-0.000605162	0	0.00011991
711.347	0.00846697	-0.00060758	0	-3.27727e-05
721.347	0.00835245	-0.000558454	0	-7.09433e-05
731.347	0.00837153	-0.00059479	0	0.000100824
741.347	0.00837153	-0.000581045	0	8.1739e-05
751.347	0.00850514	-0.000514991	0	0.000100824
761.347	0.00840971	-0.000631825	0	5.39784e-06
771.347	0.00846697	-0.000510346	0	4.35684e-05
781.347	0.00850514	-0.000650852	0	-0.000109114
791.347	0.00846697	-0.000555654	0	0.00015808
801.347	0.00852423	-0.000660461	0	4.35684e-05
811.347	0.00839062	-0.000636662	0	-1.36875e-05
821.347	0.00846697	-0.000569272	0	5.39784e-06
831.347	0.00846697	-0.000560363	0	0.00011991
841.347	0.0084288	-0.000531918	0	5.39784e-06
851.347	0.00848606	-0.000491001	0	4.35684e-05
861.347	0.0084288	-0.000551327	0	5.39784e-06
871.347	0.00840971	-0.000618589	0	6.26537e-05
881.347	0.0084288	-0.00115662	0	5.39784e-06
891.347	0.00833336	-0.000560681	0	0.000100824
901.347	0.00850514	-0.000515373	0	6.26537e-05
911.347	0.00844788	-0.000594981	0	0.000138995
921.347	0.00840971	-0.000486801	0	2.44831e-05
931.347	0.00839062	-0.000552981	0	8.1739e-05
941.347	0.00839062	-0.000506528	0	5.39784e-06
951.347	0.0084288	-0.000444865	0	0.000100824
961.347	0.00848606	-0.000437356	0	-3.27727e-05
971.347	0.00833336	-0.000405984	0	-1.36875e-05
981.347	0.00852423	-0.000409675	0	2.44831e-05
991.347	0.00839062	-0.00041992	0	-5.1858e-05
1001.35	0.00835245	-0.00042132	0	-0.000109114
1011.35	0.00844788	-0.000413557	0	4.35684e-05
1021.35	0.00833336	-0.000408339	0	2.44831e-05
1031.35	0.0084288	-0.00164687	0	-5.1858e-05
1041.35	0.00833336	-0.00065168	0	8.1739e-05
1051.35	0.00839062	-0.000454538	0	2.44831e-05
1061.35	0.00837153	-0.000361376	0	0.000138995
1071.35	0.00844788	-0.000385621	0	-7.09433e-05
1081.35	0.00848606	-0.000649707	0	4.35684e-05
1091.35	0.0084288	-0.000341395	0	4.35684e-05
1101.35	0.00840971	-0.000388994	0	-3.27727e-05
1111.35	0.00837153	-0.000510346	0	4.35684e-05
1121.35	0.00840971	-0.000507228	0	5.39784e-06
1131.35	0.0084288	-0.000433856	0	0.00011991
1141.35	0.00840971	-0.000559981	0	-7.09433e-05
1151.35	0.00840971	-0.000384094	0	6.26537e-05
1161.35	0.00837153	-0.000378557	0	6.26537e-05
1171.35	0.00848606	-0.000346867	0	2.44831e-05
1181.35	0.0084288	-0.000381739	0	-3.27727e-05
1191.35	0.00839062	-0.000437929	0	8.1739e-05
1201.35	0.00835245	-0.000480883	0	-7.09433e-05
1211.35	0.00844788	-0.000355903	0	4.35684e-05
1221.35	0.00837153	-0.000342858	0	4.35684e-05
1231.35	0.00850514	-0.000432647	0	6.26537e-05
1241.35	0.00837153	-0.000459247	0	-0.000109114
1251.35	0.00833336	-0.000389439	0	4.35684e-05
1261.35	0.00852423	-0.000343558	0	4.35684e-05
1271.35	0.00839062	-0.000329558	0	-1.36875e-05
1281.35	0.00840971	-0.000319822	0	0.00011991
1291.35	0.00833336	-0.000369521	0	2.44831e-05
1301.35	0.00840971	-0.000347885	0	2.44831e-05
1311.35	0.0084288	-0.000394275	0	8.1739e-05
1321.35	0.00839062	-0.000367803	0	-3.27727e-05
1331.35	0.00846697	-0.000412602	0	5.39784e-06
1341.35	0.0084288	-0.000406684	0	4.35684e-05
1351.35	0.0084288	-0.000334331	0	0.000138995
1361.35	0.00835245	-0.000522118	0	5.39784e-06
1371.35	0.00839062	-0.000325104	0	4.35684e-05
1381.35	0.0084288	-0.000391539	0	2.44831e-05
1391.35	0.00840971	-0.000345022	0	0.00011991
1401.35	0.0084288	-0.000326568	0	-1.36875e-05
1411.35	0.00848606	-0.000385557	0	0.000138995
1421.35	0.00840971	-0.000349158	0	4.35684e-05
1431.35	0.00840971	-0.000366594	0	-5.1858e-05
1441.35	0.00846697	-0.000423293	0	0.000100824
1451.35	0.00835245	-0.000355203	0	-0.000109114
1461.35	0.00840971	-0.000336431	0	0.00011991
1471.35	0.0084288	-0.000268914	0	8.1739e-05
1481.35	0.0085624	-0.000412157	0	5.39784e-06
1491.35	0.00844788	-0.000377794	0	5.39784e-06
1501.35	0.00844788	-0.00027795	0	4.35684e-05
1511.35	0.0084288	-0.000400639	0	-1.36875e-05
1521.35	0.00839062	-0.000378176	0	0.000215336
1531.35	0.00840971	-0.000513973	0	4.35684e-05
1541.35	0.0084288	-0.000294686	0	5.39784e-06
1551.35	0.00835245	-0.00031594	0	-1.36875e-05
1561.35	0.00844788	-0.000398157	0	-9.00286e-05
1571.35	0.00846697	-0.000404202	0	0.000100824
1581.35	0.00840971	-0.000399875	0	5.39784e-06
1591.35	0.00839062	-0.000763168	0	8.1739e-05
1601.35	0.00840971	-0.000354058	0	2.44831e-05
1611.35	0.00837153	-0.000297614	0	6.26537e-05
1621.35	0.00846697	-0.000319695	0	0.000177165
1631.35	0.00835245	-0.000298823	0	2.44831e-05
1641.35	0.00850514	-0.000285396	0	6.26537e-05
1651.35	0.00844788	-0.00027655	0	4.35684e-05
1661.35	0.00837153	-0.000331531	0	-3.27727e-05
1671.35	0.00833336	-0.000358894	0	4.35684e-05
1681.35	0.00848606	-0.000370667	0	2.44831e-05
1691.35	0.00848606	-0.000277314	0	4.35684e-05
1701.35	0.00833336	-0.000279605	0	8.1739e-05
1711.35	0.0084288	-0.00032224	0	4.35684e-05
1721.35	0.00844788	-0.000307286	0	2.44831e-05
1731.35	0.00844788	-0.000291886	0	0.000100824
1741.35	0.00839062	-0.000293795	0	-3.27727e-05
1751.35	0.00837153	-0.000356603	0	-1.36875e-05
1761.35	0.00846697	-0.000371621	0	-7.09433e-05
1771.35	0.00835245	-0.00034744	0	8.1739e-05
1781.35	0.0085624	-0.000290423	0	2.44831e-05
1791.35	0.00844788	-0.000310468	0	8.1739e-05
1801.35	0.00835245	-0.00037983	0	5.39784e-06
1811.35	0.0084288	-0.000272096	0	4.35684e-05
1821.35	0.00846697	-0.000313013	0	0.000177165
1831.35	0.00835245	-0.00028565	0	8.1739e-05
1841.35	0.00840971	-0.000402421	0	2.44831e-05
1851.35	0.00840971	-0.000286286	0	5.39784e-06
1860.05	0.00852423	-0.000375248	0	8.1739e-05