File: EXPERIMENTAL/DATA/Electrochemical-cycling/S-series/2024-07-02_S20_Icell_t1800_C0010_J01_deltaX-110,2mm_plating-stripping_04_CP_C02.txt
time/s	Ewe/V	I/mA	error
1860.26	-0.000105329	-0.194575	0
1860.26	-0.0152175	-0.195968	0
1860.26	-0.0264223	-0.195963	0
1860.26	-0.0367491	-0.195969	0
1860.27	-0.0461405	-0.195966	0
1860.27	-0.0546921	-0.195966	0
1860.27	-0.0633391	-0.195967	0
1860.27	-0.0727687	-0.195972	0
1860.28	-0.0820266	-0.195968	0
1860.28	-0.0914562	-0.195968	0
1860.29	-0.100027	-0.195969	0
1860.29	-0.107739	-0.195971	0
1860.3	-0.11629	-0.195963	0
1860.3	-0.124708	-0.195968	0
1860.31	-0.133355	-0.195966	0
1860.31	-0.141334	-0.195966	0
1860.32	-0.149007	-0.195971	0
1860.33	-0.156948	-0.195968	0
1860.34	-0.164603	-0.195967	0
1860.35	-0.172028	-0.195973	0
1860.38	-0.177392	-0.195965	0
1860.4	-0.169795	-0.195971	0
1860.4	-0.161587	-0.195971	0
1860.41	-0.153455	-0.195973	0
1860.42	-0.145113	-0.195971	0
1860.43	-0.13744	-0.195966	0
1860.44	-0.129805	-0.195968	0
1860.45	-0.122265	-0.195965	0
1860.47	-0.114782	-0.195972	0
1860.5	-0.107395	-0.195971	0
1860.57	-0.100199	-0.195973	0
1861.53	-0.103215	-0.195966	0
1863.31	-0.110373	-0.195971	0
1872.12	-0.117569	-0.19597	0
1932.95	0.918964	-0.195968	0
1932.96	0.908065	-0.195966	0
1932.96	0.898845	-0.195964	0
1932.96	0.890847	-0.195964	0
1932.97	0.881876	-0.19597	0
1932.97	0.871931	-0.195966	0
1932.97	0.86294	-0.195967	0
1932.98	0.854503	-0.195971	0
1932.98	0.846047	-0.19597	0
1932.99	0.837438	-0.195965	0
1932.99	0.829288	-0.195966	0
1933	0.820736	-0.195968	0
1933	0.812566	-0.195964	0
1933.01	0.804396	-0.195966	0
1933.01	0.796188	-0.195966	0
1933.02	0.788305	-0.195967	0
1933.03	0.780231	-0.195971	0
1933.03	0.772233	-0.195964	0
1933.04	0.764235	-0.19597	0
1933.04	0.755702	-0.195964	0
1933.05	0.7478	-0.195976	0
1933.06	0.739343	-0.195972	0
1933.06	0.731269	-0.195968	0
1933.07	0.72371	-0.195964	0
1933.08	0.71575	-0.195971	0
1933.09	0.70781	-0.195965	0
1933.09	0.699602	-0.195968	0
1933.1	0.691394	-0.19597	0
1933.11	0.683071	-0.195966	0
1933.12	0.675016	-0.195969	0
1933.12	0.666865	-0.195966	0
1933.13	0.658733	-0.195972	0
1933.14	0.650736	-0.195968	0
1933.15	0.642279	-0.195971	0
1933.16	0.634759	-0.195963	0
1933.16	0.627066	-0.19597	0
1933.17	0.619278	-0.195966	0
1933.18	0.611318	-0.195971	0
1933.19	0.603511	-0.195973	0
1933.2	0.595876	-0.195966	0
1933.21	0.588279	-0.195966	0
1933.21	0.580815	-0.195973	0
1933.22	0.573027	-0.195971	0
1933.23	0.565621	-0.195969	0
1933.24	0.557336	-0.195967	0
1933.25	0.54951	-0.195962	0
1933.26	0.542161	-0.19597	0
1933.27	0.534201	-0.195968	0
1933.28	0.526318	-0.195966	0
1933.29	0.518453	-0.195966	0
1933.3	0.510895	-0.195962	0
1933.31	0.503164	-0.195964	0
1933.32	0.495395	-0.195968	0
1933.33	0.48774	-0.19597	0
1933.34	0.479723	-0.195967	0
1933.35	0.47226	-0.195967	0
1933.36	0.464491	-0.195963	0
1933.37	0.456798	-0.195975	0
1933.38	0.448972	-0.19597	0
1933.39	0.441108	-0.195966	0
1933.4	0.433339	-0.195965	0
1933.41	0.425665	-0.195968	0
1933.42	0.418125	-0.195969	0
1933.43	0.410585	-0.195965	0
1933.44	0.402855	-0.195961	0
1933.45	0.395105	-0.19597	0
1933.46	0.38745	-0.195967	0
1933.47	0.379911	-0.19597	0
1933.48	0.372332	-0.195966	0
1933.49	0.364697	-0.195971	0
1933.51	0.356775	-0.19597	0
1933.52	0.349121	-0.195961	0
1933.53	0.341715	-0.195968	0
1933.54	0.33406	-0.195967	0
1933.55	0.326559	-0.19597	0
1933.56	0.318904	-0.195967	0
1933.57	0.311326	-0.195967	0
1933.59	0.303538	-0.195969	0
1933.6	0.295884	-0.19597	0
1933.61	0.288306	-0.195969	0
1933.62	0.28069	-0.195972	0
1933.64	0.273111	-0.195965	0
1933.65	0.265476	-0.195971	0
1933.66	0.257784	-0.19597	0
1933.67	0.250205	-0.195961	0
1933.69	0.24257	-0.195971	0
1933.7	0.235068	-0.195968	0
1933.71	0.227223	-0.195968	0
1933.73	0.219664	-0.195971	0
1933.74	0.211972	-0.195961	0
1933.75	0.204298	-0.195966	0
1933.77	0.196663	-0.195966	0
1933.78	0.189085	-0.195971	0
1933.8	0.181507	-0.195969	0
1933.81	0.173967	-0.195968	0
1933.82	0.166141	-0.19597	0
1933.84	0.15862	-0.195968	0
1933.85	0.150946	-0.195966	0
1933.87	0.143311	-0.195972	0
1933.88	0.135866	-0.195963	0
1933.9	0.128327	-0.195971	0
1933.91	0.120863	-0.195971	0
1933.93	0.113361	-0.195971	0
1933.95	0.105821	-0.195968	0
1933.96	0.097938	-0.195964	0
1933.98	0.0903409	-0.195971	0
1934	0.0825147	-0.195966	0
1934.01	0.0750702	-0.195969	0
1934.03	0.0672822	-0.195969	0
1934.05	0.0597041	-0.19597	0
1934.07	0.0523551	-0.19597	0
1934.08	0.0447771	-0.195967	0
1934.1	0.0373135	-0.195962	0
1934.12	0.0299073	-0.195971	0
1934.14	0.0225583	-0.195969	0
1934.16	0.014942	-0.19597	0
1934.18	0.00763122	-0.195971	0
1934.2	3.4071e-05	-0.195971	0
1934.22	-0.00737219	-0.195966	0
1934.24	-0.014893	-0.195967	0
1934.26	-0.022471	-0.195966	0
1934.28	-0.0299537	-0.195968	0
1934.31	-0.0374745	-0.19597	0
1934.33	-0.0448998	-0.195969	0
1934.35	-0.0522679	-0.195966	0
1934.38	-0.0598841	-0.195968	0
1934.41	-0.0673286	-0.195966	0
1934.44	-0.0748494	-0.195966	0
1934.48	-0.0821984	-0.195965	0
1934.53	-0.0893756	-0.195966	0
1934.76	-0.086226	-0.195967	0
1934.95	-0.0789152	-0.195963	0
1935.26	-0.0717571	-0.195966	0
1936.16	-0.0645608	-0.195971	0
1943.22	-0.0675194	-0.19597	0
1946.36	-0.0746203	-0.195964	0
1949.06	-0.0818166	-0.195975	0
1951.55	-0.0890511	-0.195975	0
1954.14	-0.0962474	-0.195967	0
1957.65	-0.103425	-0.195973	0
1965.65	-0.110602	-0.19597	0
2002.13	0.918105	-0.195967	0
2002.13	0.906882	-0.195968	0
2002.13	0.897948	-0.195965	0
2002.13	0.889893	-0.195963	0
2002.14	0.881513	-0.195964	0
2002.14	0.872293	-0.195968	0
2002.15	0.863398	-0.195972	0
2002.15	0.854866	-0.195966	0
2002.15	0.846524	-0.195967	0
2002.16	0.837839	-0.19597	0
2002.16	0.829879	-0.195965	0
2002.17	0.821213	-0.195969	0
2002.17	0.812833	-0.195966	0
2002.18	0.80474	-0.195961	0
2002.18	0.796799	-0.195963	0
2002.19	0.788744	-0.195969	0
2002.19	0.780517	-0.19597	0
2002.2	0.772366	-0.195963	0
2002.21	0.764483	-0.195966	0
2002.21	0.756351	-0.195965	0
2002.22	0.748009	-0.195968	0
2002.22	0.739763	-0.195966	0
2002.23	0.731918	-0.195968	0
2002.24	0.723901	-0.195972	0
2002.24	0.715808	-0.195966	0
2002.25	0.70802	-0.195969	0
2002.26	0.699812	-0.195964	0
2002.26	0.692024	-0.195961	0
2002.27	0.684216	-0.195966	0
2002.28	0.676161	-0.195968	0
2002.28	0.668755	-0.195966	0
2002.29	0.660757	-0.195964	0
2002.3	0.652797	-0.195969	0
2002.31	0.644398	-0.195971	0
2002.31	0.636572	-0.195964	0
2002.32	0.629032	-0.195968	0
2002.33	0.621263	-0.195972	0
2002.34	0.612941	-0.195971	0
2002.35	0.604981	-0.19597	0
2002.35	0.597174	-0.195968	0
2002.36	0.589252	-0.195966	0
2002.37	0.581216	-0.195968	0
2002.38	0.573313	-0.195972	0
2002.39	0.565449	-0.195966	0
2002.4	0.557699	-0.19597	0
2002.4	0.549682	-0.19597	0
2002.41	0.542085	-0.195971	0
2002.42	0.534182	-0.195971	0
2002.43	0.527024	-0.195967	0
2002.44	0.519236	-0.195968	0
2002.45	0.51141	-0.19597	0
2002.46	0.50387	-0.195964	0
2002.47	0.496139	-0.195968	0
2002.47	0.488351	-0.195966	0
2002.48	0.480449	-0.195968	0
2002.49	0.47289	-0.195969	0
2002.5	0.465006	-0.195968	0
2002.51	0.457161	-0.195969	0
2002.52	0.449602	-0.195965	0
2002.53	0.44168	-0.195963	0
2002.54	0.433701	-0.195968	0
2002.55	0.426181	-0.195973	0
2002.56	0.418507	-0.195968	0
2002.57	0.41049	-0.195966	0
2002.58	0.403084	-0.195966	0
2002.59	0.395296	-0.195966	0
2002.6	0.387679	-0.195964	0
2002.61	0.380197	-0.195961	0
2002.62	0.372676	-0.195968	0
2002.63	0.365098	-0.19597	0
2002.64	0.357501	-0.195964	0
2002.65	0.349846	-0.19597	0
2002.66	0.342116	-0.195968	0
2002.68	0.334652	-0.195963	0
2002.69	0.327112	-0.195978	0
2002.7	0.319191	-0.195969	0
2002.71	0.311632	-0.195966	0
2002.72	0.303825	-0.195967	0
2002.73	0.296304	-0.195974	0
2002.74	0.288516	-0.195966	0
2002.75	0.280709	-0.195973	0
2002.77	0.273169	-0.19597	0
2002.78	0.265304	-0.195965	0
2002.79	0.257707	-0.195968	0
2002.8	0.249747	-0.195973	0
2002.81	0.242055	-0.195965	0
2002.83	0.234267	-0.195968	0
2002.84	0.226784	-0.195968	0
2002.85	0.219492	-0.195968	0
2002.86	0.211914	-0.195971	0
2002.88	0.204317	-0.195967	0
2002.89	0.19672	-0.19597	0
2002.9	0.189104	-0.195966	0
2002.92	0.181621	-0.195974	0
2002.93	0.173967	-0.195966	0
2002.94	0.166541	-0.19597	0
2002.96	0.158792	-0.195965	0
2002.97	0.15108	-0.195975	0
2002.98	0.143731	-0.195976	0
2003	0.136096	-0.195965	0
2003.01	0.128441	-0.19597	0
2003.03	0.120863	-0.195969	0
2003.04	0.113361	-0.195973	0
2003.06	0.105955	-0.195969	0
2003.07	0.0984725	-0.195969	0
2003.09	0.0908372	-0.195971	0
2003.1	0.0834691	-0.195968	0
2003.12	0.0758338	-0.195971	0
2003.13	0.0684657	-0.195971	0
2003.15	0.0610594	-0.19597	0
2003.16	0.0533859	-0.195966	0
2003.18	0.0459796	-0.19597	0
2003.2	0.0384779	-0.195965	0
2003.21	0.0310717	-0.195972	0
2003.23	0.0233409	-0.195975	0
2003.25	0.0157628	-0.19597	0
2003.27	0.00839475	-0.195974	0
2003.29	0.000816692	-0.195971	0
2003.31	-0.0067041	-0.19597	0
2003.33	-0.0143012	-0.195977	0
2003.35	-0.0218793	-0.195972	0
2003.37	-0.0292283	-0.19597	0
2003.39	-0.0364055	-0.195962	0
2003.41	-0.0440408	-0.195969	0
2003.43	-0.0515044	-0.195971	0
2003.45	-0.0588915	-0.195967	0
2003.48	-0.0664887	-0.195973	0
2003.52	-0.0737613	-0.195966	0
2003.57	-0.0811867	-0.19597	0
2003.87	-0.0800414	-0.195972	0
2004.25	-0.0727687	-0.195971	0
2005.36	-0.0656679	-0.195971	0
2013.61	-0.0707645	-0.195965	0
2017.07	-0.0778653	-0.195969	0
2019.98	-0.0850234	-0.195972	0
2022.84	-0.0922006	-0.195974	0
2025.81	-0.099416	-0.195972	0
2029.8	-0.106555	-0.195974	0
2069.73	0.924815	-0.194573	0
2069.73	0.912436	-0.195965	0
2069.73	0.901899	-0.195966	0
2069.73	0.893176	-0.195968	0
2069.74	0.885083	-0.195963	0
2069.74	0.875825	-0.195966	0
2069.74	0.866815	-0.195963	0
2069.75	0.857825	-0.195968	0
2069.75	0.848834	-0.195969	0
2069.76	0.840588	-0.195967	0
2069.76	0.832513	-0.195965	0
2069.77	0.823943	-0.195971	0
2069.77	0.815449	-0.195968	0
2069.78	0.80705	-0.195966	0
2069.78	0.798842	-0.195968	0
2069.79	0.790347	-0.195968	0
2069.79	0.7817	-0.195971	0
2069.8	0.773321	-0.19597	0
2069.8	0.765055	-0.195973	0
2069.81	0.756962	-0.195971	0
2069.81	0.748945	-0.195966	0
2069.82	0.741214	-0.195966	0
2069.83	0.733044	-0.19597	0
2069.83	0.724645	-0.195969	0
2069.84	0.716056	-0.19597	0
2069.85	0.707256	-0.195971	0
2069.85	0.699411	-0.195967	0
2069.86	0.691451	-0.195968	0
2069.87	0.683224	-0.19597	0
2069.87	0.675149	-0.195973	0
2069.88	0.667113	-0.195973	0
2069.89	0.659115	-0.195973	0
2069.89	0.651423	-0.195965	0
2069.9	0.64352	-0.195968	0
2069.91	0.635923	-0.195966	0
2069.91	0.627753	-0.195966	0
2069.92	0.619851	-0.195971	0
2069.93	0.612349	-0.195969	0
2069.94	0.604733	-0.195967	0
2069.94	0.596964	-0.195972	0
2069.95	0.589252	-0.195965	0
2069.96	0.581063	-0.195963	0
2069.97	0.573046	-0.195966	0
2069.98	0.565506	-0.19597	0
2069.98	0.558043	-0.195961	0
2069.99	0.550255	-0.19597	0
2070	0.542371	-0.195966	0
2070.01	0.53424	-0.195968	0
2070.02	0.526681	-0.195967	0
2070.03	0.518702	-0.195969	0
2070.03	0.510685	-0.195971	0
2070.04	0.503145	-0.195963	0
2070.05	0.495414	-0.195966	0
2070.06	0.487473	-0.195964	0
2070.07	0.479895	-0.195964	0
2070.08	0.472317	-0.195968	0
2070.09	0.464357	-0.195967	0
2070.1	0.456588	-0.195967	0
2070.11	0.448648	-0.195964	0
2070.11	0.441241	-0.195964	0
2070.12	0.433587	-0.195969	0
2070.13	0.425455	-0.195966	0
2070.14	0.417954	-0.195971	0
2070.15	0.410146	-0.195969	0
2070.16	0.402454	-0.195963	0
2070.17	0.395028	-0.195971	0
2070.18	0.387183	-0.19597	0
2070.19	0.379376	-0.195968	0
2070.2	0.371741	-0.195969	0
2070.21	0.363953	-0.195975	0
2070.22	0.355974	-0.195968	0
2070.23	0.348338	-0.195961	0
2070.24	0.340856	-0.195968	0
2070.25	0.333354	-0.19597	0
2070.26	0.325776	-0.195967	0
2070.27	0.31816	-0.195963	0
2070.28	0.310505	-0.195969	0
2070.29	0.302985	-0.195969	0
2070.31	0.295216	-0.195963	0
2070.32	0.287351	-0.195966	0
2070.33	0.279716	-0.195973	0
2070.34	0.271794	-0.195967	0
2070.35	0.264274	-0.195974	0
2070.36	0.256695	-0.195964	0
2070.37	0.248965	-0.195968	0
2070.38	0.241501	-0.195969	0
2070.4	0.233694	-0.195962	0
2070.41	0.225772	-0.195972	0
2070.42	0.217832	-0.195968	0
2070.43	0.209872	-0.195969	0
2070.45	0.202408	-0.195968	0
2070.46	0.195193	-0.195965	0
2070.47	0.187863	-0.195974	0
2070.48	0.18017	-0.19597	0
2070.49	0.172669	-0.19597	0
2070.51	0.16511	-0.19597	0
2070.52	0.157608	-0.195972	0
2070.53	0.149992	-0.195967	0
2070.55	0.142605	-0.195971	0
2070.56	0.134817	-0.195963	0
2070.57	0.127181	-0.195965	0
2070.59	0.119546	-0.19597	0
2070.6	0.112178	-0.195966	0
2070.62	0.104409	-0.195966	0
2070.63	0.0966973	-0.195966	0
2070.65	0.0890047	-0.195964	0
2070.66	0.0815412	-0.195968	0
2070.68	0.0739631	-0.195967	0
2070.69	0.0665187	-0.195971	0
2070.71	0.0587497	-0.195962	0
2070.72	0.0511526	-0.19597	0
2070.74	0.043689	-0.195965	0
2070.75	0.0360155	-0.195972	0
2070.77	0.0283611	-0.195968	0
2070.79	0.0206876	-0.195971	0
2070.8	0.0130332	-0.195967	0
2070.82	0.00547424	-0.195966	0
2070.84	-0.00187476	-0.195969	0
2070.86	-0.00968188	-0.195966	0
2070.88	-0.0173363	-0.195966	0
2070.9	-0.0249334	-0.195971	0
2070.92	-0.0322824	-0.195961	0
2070.94	-0.0398032	-0.195968	0
2070.96	-0.0473813	-0.19597	0
2070.98	-0.0548066	-0.195969	0
2071.01	-0.0623465	-0.195973	0
2071.04	-0.0696192	-0.195969	0
2071.1	-0.0768536	-0.195975	0
2071.49	-0.0779226	-0.19597	0
2072.25	-0.070669	-0.19597	0
2079.41	-0.0716807	-0.195972	0
2083.45	-0.0788579	-0.19597	0
2086.49	-0.0860924	-0.195968	0
2089.38	-0.0932505	-0.195966	0
2092.48	-0.100542	-0.195973	0
2096.82	-0.1077	-0.19597	0
2135.41	0.919122	-0.195963	0
2135.41	0.90734	-0.195963	0
2135.42	0.897433	-0.195966	0
2135.42	0.888786	-0.195967	0
2135.42	0.881093	-0.195968	0
2135.43	0.872103	-0.195968	0
2135.43	0.862692	-0.195964	0
2135.43	0.85374	-0.195968	0
2135.44	0.844329	-0.19597	0
2135.44	0.835491	-0.195969	0
2135.45	0.82715	-0.195973	0
2135.45	0.819094	-0.195963	0
2135.46	0.811115	-0.19597	0
2135.46	0.803366	-0.195968	0
2135.47	0.794642	-0.195971	0
2135.47	0.786033	-0.195966	0
2135.48	0.778093	-0.195968	0
2135.48	0.769999	-0.195965	0
2135.49	0.76181	-0.195971	0
2135.49	0.753946	-0.19597	0
2135.5	0.745986	-0.195972	0
2135.5	0.738122	-0.19597	0
2135.51	0.729627	-0.195968	0
2135.52	0.721916	-0.19597	0
2135.52	0.71388	-0.195973	0
2135.53	0.705614	-0.195971	0
2135.53	0.697731	-0.195965	0
2135.54	0.689962	-0.195966	0
2135.55	0.68204	-0.195961	0
2135.55	0.673928	-0.19597	0
2135.56	0.666044	-0.195971	0
2135.57	0.65776	-0.195968	0
2135.57	0.649667	-0.195968	0
2135.58	0.641859	-0.195964	0
2135.59	0.633766	-0.19597	0
2135.59	0.625825	-0.19597	0
2135.6	0.617942	-0.19597	0
2135.61	0.610268	-0.195968	0
2135.62	0.60227	-0.195968	0
2135.62	0.594368	-0.19597	0
2135.63	0.586332	-0.195969	0
2135.64	0.578124	-0.195967	0
2135.65	0.569858	-0.195973	0
2135.65	0.562166	-0.195968	0
2135.66	0.554378	-0.195971	0
2135.67	0.546761	-0.195963	0
2135.68	0.539222	-0.195966	0
2135.69	0.531262	-0.195965	0
2135.69	0.523168	-0.195968	0
2135.7	0.515495	-0.195972	0
2135.71	0.507573	-0.195968	0
2135.72	0.499575	-0.195968	0
2135.73	0.491921	-0.195968	0
2135.74	0.4844	-0.195966	0
2135.74	0.476822	-0.195963	0
2135.75	0.46911	-0.195969	0
2135.76	0.461189	-0.195972	0
2135.77	0.453477	-0.195968	0
2135.78	0.445746	-0.195971	0
2135.79	0.437672	-0.195965	0
2135.8	0.42996	-0.195966	0
2135.81	0.422038	-0.195968	0
2135.82	0.414327	-0.195973	0
2135.83	0.406577	-0.195966	0
2135.84	0.399037	-0.195963	0
2135.84	0.391459	-0.195964	0
2135.85	0.383671	-0.195965	0
2135.86	0.376055	-0.195973	0
2135.87	0.368343	-0.195969	0
2135.88	0.360822	-0.195968	0
2135.89	0.353149	-0.195966	0
2135.9	0.345074	-0.195973	0
2135.91	0.337573	-0.195968	0
2135.92	0.32967	-0.195964	0
2135.93	0.322016	-0.195973	0
2135.94	0.314247	-0.195968	0
2135.95	0.306554	-0.195966	0
2135.96	0.298842	-0.195971	0
2135.98	0.291112	-0.195967	0
2135.99	0.283495	-0.195967	0
2136	0.276127	-0.195967	0
2136.01	0.26874	-0.195964	0
2136.02	0.261334	-0.195969	0
2136.03	0.253622	-0.195965	0
2136.04	0.246082	-0.195968	0
2136.05	0.23839	-0.195966	0
2136.06	0.23085	-0.19597	0
2136.07	0.223176	-0.19597	0
2136.08	0.215656	-0.195971	0
2136.1	0.208097	-0.195973	0
2136.11	0.200366	-0.195966	0
2136.12	0.192597	-0.195964	0
2136.13	0.185038	-0.195971	0
2136.14	0.177842	-0.195967	0
2136.16	0.16992	-0.195968	0
2136.17	0.162113	-0.195964	0
2136.18	0.154172	-0.195971	0
2136.2	0.146537	-0.195973	0
2136.21	0.13873	-0.195969	0
2136.22	0.131094	-0.195968	0
2136.24	0.123574	-0.195969	0
2136.25	0.115938	-0.195972	0
2136.26	0.10836	-0.195972	0
2136.28	0.100954	-0.195964	0
2136.29	0.0933186	-0.195971	0
2136.3	0.0856451	-0.195969	0
2136.32	0.0776281	-0.19597	0
2136.33	0.0701073	-0.195972	0
2136.35	0.0623001	-0.195964	0
2136.36	0.0546457	-0.195969	0
2136.38	0.0472967	-0.195968	0
2136.39	0.0399095	-0.19597	0
2136.41	0.0318925	-0.19597	0
2136.43	0.0243908	-0.195969	0
2136.44	0.0168318	-0.195968	0
2136.46	0.0092919	-0.195968	0
2136.48	0.00180928	-0.19597	0
2136.49	-0.00580695	-0.195975	0
2136.51	-0.0132323	-0.19597	0
2136.53	-0.0206958	-0.195964	0
2136.55	-0.0283121	-0.195969	0
2136.56	-0.0356229	-0.195968	0
2136.58	-0.0431055	-0.195968	0
2136.61	-0.0503591	-0.195968	0
2136.63	-0.0576699	-0.195974	0
2136.66	-0.065038	-0.195971	0
2136.71	-0.0724442	-0.195968	0
2136.84	-0.0795833	-0.195969	0
2138.24	-0.0724633	-0.195968	0
2145.77	-0.077579	-0.195973	0
2149.22	-0.0847753	-0.195973	0
2152.09	-0.0918761	-0.195969	0
2155.18	-0.0990724	-0.19597	0
2158.73	-0.106173	-0.195972	0
2168.53	-0.113389	-0.19597	0
2199.72	0.911921	-0.195967	0
2199.73	0.901594	-0.195968	0
2199.73	0.89226	-0.195964	0
2199.73	0.883804	-0.195968	0
2199.73	0.875023	-0.195968	0
2199.74	0.865937	-0.195961	0
2199.74	0.856946	-0.195961	0
2199.75	0.847689	-0.19597	0
2199.75	0.83929	-0.195962	0
2199.75	0.830433	-0.195963	0
2199.76	0.82232	-0.195968	0
2199.76	0.814151	-0.195964	0
2199.77	0.806	-0.195966	0
2199.77	0.797964	-0.195963	0
2199.78	0.789068	-0.195969	0
2199.78	0.780784	-0.195965	0
2199.79	0.772557	-0.195963	0
2199.79	0.76391	-0.195967	0
2199.8	0.755759	-0.19597	0
2199.8	0.747208	-0.195964	0
2199.81	0.739248	-0.195967	0
2199.82	0.731193	-0.19597	0
2199.82	0.723367	-0.195963	0
2199.83	0.715369	-0.195964	0
2199.83	0.707103	-0.195966	0
2199.84	0.699277	-0.195968	0
2199.85	0.691508	-0.195966	0
2199.85	0.683453	-0.195971	0
2199.86	0.67513	-0.195964	0
2199.86	0.667228	-0.195968	0
2199.87	0.658963	-0.195969	0
2199.88	0.65106	-0.19597	0
2199.89	0.642737	-0.19597	0
2199.89	0.634701	-0.195968	0
2199.9	0.626684	-0.195967	0
2199.91	0.618724	-0.195971	0
2199.91	0.610688	-0.195966	0
2199.92	0.603225	-0.195965	0
2199.93	0.594959	-0.195963	0
2199.93	0.587305	-0.195974	0
2199.94	0.579402	-0.195965	0
2199.95	0.571767	-0.195968	0
2199.96	0.564036	-0.195963	0
2199.96	0.556153	-0.195968	0
2199.97	0.547983	-0.195962	0
2199.98	0.540004	-0.195966	0
2199.99	0.532159	-0.19597	0
2200	0.524199	-0.195971	0
2200	0.516277	-0.195964	0
2200.01	0.508222	-0.195966	0
2200.02	0.50032	-0.195965	0
2200.03	0.492551	-0.19597	0
2200.04	0.484686	-0.195964	0
2200.04	0.477127	-0.195969	0
2200.05	0.469416	-0.195967	0
2200.06	0.461666	-0.195971	0
2200.07	0.453801	-0.195966	0
2200.08	0.445937	-0.195968	0
2200.09	0.438111	-0.195964	0
2200.1	0.430075	-0.195963	0
2200.11	0.422191	-0.195964	0
2200.12	0.414384	-0.195971	0
2200.12	0.406672	-0.19597	0
2200.13	0.399304	-0.195968	0
2200.14	0.391402	-0.195967	0
2200.15	0.383556	-0.195968	0
2200.16	0.375978	-0.195973	0
2200.17	0.36819	-0.19597	0
2200.18	0.360059	-0.195968	0
2200.19	0.352309	-0.19597	0
2200.2	0.344693	-0.195969	0
2200.21	0.336943	-0.195969	0
2200.22	0.329269	-0.195964	0
2200.23	0.321672	-0.195971	0
2200.24	0.313789	-0.195971	0
2200.25	0.305829	-0.195969	0
2200.26	0.298003	-0.19597	0
2200.27	0.290329	-0.195966	0
2200.28	0.282713	-0.195966	0
2200.29	0.275211	-0.19597	0
2200.3	0.267385	-0.195972	0
2200.31	0.259654	-0.195967	0
2200.32	0.251981	-0.195968	0
2200.33	0.244555	-0.195973	0
2200.34	0.237035	-0.195969	0
2200.36	0.229304	-0.195964	0
2200.37	0.221707	-0.19597	0
2200.38	0.214014	-0.195968	0
2200.39	0.206436	-0.19597	0
2200.4	0.198667	-0.19597	0
2200.41	0.190994	-0.19597	0
2200.42	0.183205	-0.195967	0
2200.44	0.175227	-0.195966	0
2200.45	0.167439	-0.195968	0
2200.46	0.159784	-0.195964	0
2200.47	0.15234	-0.195966	0
2200.49	0.14501	-0.195969	0
2200.5	0.137374	-0.195964	0
2200.51	0.129777	-0.195971	0
2200.52	0.122161	-0.195962	0
2200.54	0.11485	-0.195967	0
2200.55	0.107253	-0.195967	0
2200.56	0.0996751	-0.195971	0
2200.58	0.0921543	-0.195973	0
2200.59	0.0843853	-0.195967	0
2200.6	0.0767691	-0.195964	0
2200.62	0.069191	-0.195968	0
2200.63	0.0614603	-0.195971	0
2200.65	0.0539585	-0.195966	0
2200.66	0.0464378	-0.195964	0
2200.68	0.0387833	-0.195966	0
2200.69	0.0314153	-0.19597	0
2200.71	0.0236654	-0.195968	0
2200.72	0.0161828	-0.195964	0
2200.74	0.0084711	-0.195968	0
2200.76	0.00117937	-0.195964	0
2200.77	-0.00626507	-0.195967	0
2200.79	-0.0137286	-0.195966	0
2200.81	-0.0215166	-0.195965	0
2200.82	-0.0288847	-0.195966	0
2200.84	-0.0364628	-0.195968	0
2200.86	-0.0439645	-0.195966	0
2200.89	-0.0514662	-0.195972	0
2200.91	-0.0586052	-0.195962	0
2200.94	-0.0662214	-0.195964	0
2201	-0.0736659	-0.195968	0
2201.54	-0.0788388	-0.195969	0
2207.32	-0.077789	-0.195967	0
2211.16	-0.0850043	-0.195971	0
2214.2	-0.0922197	-0.195968	0
2217.41	-0.099416	-0.195966	0
2221.2	-0.106593	-0.195974	0
2230	-0.11379	-0.195973	0
2262.99	0.912226	-0.195967	0
2263	0.901308	-0.195963	0
2263	0.891821	-0.195964	0
2263	0.882716	-0.195963	0
2263	0.873916	-0.195966	0
2263.01	0.865135	-0.195968	0
2263.01	0.856049	-0.195966	0
2263.02	0.847135	-0.195963	0
2263.02	0.838469	-0.195963	0
2263.02	0.829917	-0.195966	0
2263.03	0.821175	-0.195973	0
2263.03	0.813062	-0.19597	0
2263.04	0.805217	-0.195964	0
2263.04	0.797238	-0.195963	0
2263.05	0.789126	-0.195968	0
2263.05	0.779868	-0.195968	0
2263.06	0.771794	-0.195971	0
2263.06	0.763299	-0.195966	0
2263.07	0.754671	-0.195968	0
2263.07	0.74654	-0.195971	0
2263.08	0.738141	-0.195964	0
2263.08	0.730219	-0.195968	0
2263.09	0.72245	-0.195958	0
2263.1	0.714357	-0.195968	0
2263.1	0.706626	-0.195972	0
2263.11	0.698666	-0.195971	0
2263.11	0.690516	-0.195964	0
2263.12	0.682193	-0.195966	0
2263.12	0.674691	-0.19597	0
2263.13	0.666521	-0.195959	0
2263.14	0.658638	-0.195967	0
2263.14	0.650277	-0.195971	0
2263.15	0.64205	-0.195966	0
2263.16	0.634377	-0.195966	0
2263.16	0.626322	-0.195968	0
2263.17	0.618209	-0.195964	0
2263.18	0.610364	-0.195969	0
2263.18	0.602518	-0.195966	0
2263.19	0.594177	-0.195972	0
2263.2	0.586312	-0.195968	0
2263.21	0.578639	-0.195968	0
2263.21	0.571004	-0.19597	0
2263.22	0.563292	-0.195966	0
2263.23	0.55495	-0.195966	0
2263.24	0.547162	-0.195971	0
2263.24	0.539298	-0.195965	0
2263.25	0.531472	-0.195968	0
2263.26	0.523474	-0.195974	0
2263.27	0.515571	-0.195964	0
2263.27	0.507649	-0.195966	0
2263.28	0.499957	-0.195971	0
2263.29	0.492245	-0.195967	0
2263.3	0.484629	-0.195971	0
2263.31	0.476497	-0.195969	0
2263.32	0.46869	-0.195966	0
2263.32	0.46094	-0.195966	0
2263.33	0.453019	-0.19597	0
2263.34	0.445555	-0.195975	0
2263.35	0.437615	-0.195968	0
2263.36	0.429636	-0.195964	0
2263.37	0.421714	-0.19597	0
2263.38	0.413735	-0.195964	0
2263.39	0.405279	-0.195963	0
2263.39	0.397243	-0.195971	0
2263.4	0.389474	-0.195977	0
2263.41	0.381896	-0.195971	0
2263.42	0.373917	-0.195971	0
2263.43	0.36632	-0.195978	0
2263.44	0.358703	-0.19597	0
2263.45	0.350591	-0.195968	0
2263.46	0.342936	-0.195965	0
2263.47	0.334709	-0.19597	0
2263.48	0.327303	-0.195968	0
2263.49	0.319401	-0.195968	0
2263.5	0.311479	-0.195971	0
2263.51	0.303615	-0.195965	0
2263.52	0.296037	-0.195967	0
2263.53	0.288535	-0.19597	0
2263.54	0.28067	-0.195967	0
2263.55	0.272959	-0.195966	0
2263.56	0.265209	-0.195964	0
2263.57	0.257459	-0.195972	0
2263.58	0.24969	-0.19597	0
2263.59	0.24194	-0.195964	0
2263.6	0.234419	-0.195972	0
2263.61	0.227051	-0.195964	0
2263.62	0.219531	-0.195967	0
2263.63	0.211933	-0.195967	0
2263.65	0.204298	-0.195971	0
2263.66	0.196548	-0.195976	0
2263.67	0.188607	-0.195963	0
2263.68	0.181182	-0.195963	0
2263.69	0.1737	-0.195964	0
2263.7	0.166026	-0.195968	0
2263.72	0.158372	-0.195968	0
2263.73	0.150755	-0.195972	0
2263.74	0.143215	-0.195964	0
2263.75	0.135408	-0.195968	0
2263.77	0.127601	-0.195975	0
2263.78	0.119756	-0.195964	0
2263.79	0.112197	-0.195964	0
2263.8	0.104314	-0.195971	0
2263.82	0.0965255	-0.195971	0
2263.83	0.0891383	-0.19597	0
2263.84	0.0816175	-0.195972	0
2263.86	0.0736386	-0.195969	0
2263.87	0.0662705	-0.195966	0
2263.89	0.0585397	-0.195971	0
2263.9	0.0510571	-0.195969	0
2263.91	0.0436699	-0.195964	0
2263.93	0.0362446	-0.19597	0
2263.94	0.0287238	-0.19597	0
2263.96	0.0209167	-0.19597	0
2263.98	0.0132814	-0.195971	0
2263.99	0.00579874	-0.19597	0
2264.01	-0.00156935	-0.195972	0
2264.02	-0.00897561	-0.195972	0
2264.04	-0.0166491	-0.195969	0
2264.06	-0.0242272	-0.195972	0
2264.07	-0.0318816	-0.19597	0
2264.09	-0.0393642	-0.19597	0
2264.11	-0.0469423	-0.195962	0
2264.14	-0.0542722	-0.195973	0
2264.16	-0.0618502	-0.195968	0
2264.2	-0.0693137	-0.195967	0
2264.28	-0.0765864	-0.195967	0
2269.1	-0.0797169	-0.195969	0
2273.15	-0.0869132	-0.19597	0
2276.23	-0.0941286	-0.195971	0
2279.72	-0.101287	-0.195976	0
2284.24	-0.108521	-0.195972	0
2295.82	-0.115622	-0.195975	0
2325.55	0.909497	-0.195961	0
2325.56	0.898941	-0.195966	0
2325.56	0.889626	-0.195967	0
2325.56	0.881112	-0.195967	0
2325.56	0.872713	-0.195969	0
2325.57	0.86441	-0.195971	0
2325.57	0.854904	-0.195963	0
2325.58	0.845379	-0.195964	0
2325.58	0.836446	-0.195965	0
2325.58	0.827837	-0.195963	0
2325.59	0.819514	-0.195966	0
2325.59	0.81144	-0.195971	0
2325.6	0.803576	-0.195973	0
2325.6	0.795387	-0.195968	0
2325.61	0.786873	-0.195968	0
2325.61	0.778379	-0.195968	0
2325.62	0.769808	-0.19597	0
2325.62	0.761161	-0.19597	0
2325.63	0.752266	-0.195966	0
2325.63	0.743486	-0.195963	0
2325.64	0.734934	-0.195961	0
2325.64	0.726611	-0.19597	0
2325.65	0.718194	-0.195973	0
2325.66	0.71031	-0.195973	0
2325.66	0.702026	-0.195965	0
2325.67	0.693741	-0.195966	0
2325.67	0.68561	-0.195961	0
2325.68	0.677936	-0.19597	0
2325.69	0.669824	-0.195968	0
2325.69	0.661559	-0.195969	0
2325.7	0.653847	-0.195963	0
2325.7	0.645868	-0.19597	0
2325.71	0.637355	-0.195963	0
2325.72	0.628688	-0.195968	0
2325.73	0.620461	-0.195964	0
2325.73	0.61254	-0.195968	0
2325.74	0.604599	-0.195963	0
2325.75	0.596639	-0.195964	0
2325.75	0.58887	-0.19597	0
2325.76	0.580872	-0.195969	0
2325.77	0.572683	-0.195968	0
2325.77	0.564628	-0.195975	0
2325.78	0.556668	-0.195965	0
2325.79	0.548728	-0.19597	0
2325.8	0.540844	-0.195963	0
2325.8	0.53277	-0.195964	0
2325.81	0.524714	-0.195973	0
2325.82	0.516545	-0.195971	0
2325.83	0.508623	-0.195967	0
2325.84	0.500549	-0.195964	0
2325.84	0.492856	-0.195969	0
2325.85	0.484953	-0.19597	0
2325.86	0.477185	-0.195961	0
2325.87	0.469053	-0.19597	0
2325.88	0.461112	-0.195971	0
2325.88	0.453343	-0.195968	0
2325.89	0.445784	-0.195967	0
2325.9	0.438302	-0.195975	0
2325.91	0.430246	-0.19597	0
2325.92	0.422363	-0.195963	0
2325.93	0.414651	-0.195965	0
2325.93	0.406558	-0.195966	0
2325.94	0.398732	-0.195968	0
2325.95	0.39081	-0.195967	0
2325.96	0.383022	-0.195969	0
2325.97	0.375158	-0.195968	0
2325.98	0.36735	-0.19597	0
2325.99	0.359677	-0.195971	0
2326	0.351908	-0.195971	0
2326.01	0.344311	-0.195966	0
2326.02	0.336675	-0.19597	0
2326.03	0.328964	-0.195964	0
2326.03	0.321233	-0.195966	0
2326.04	0.313655	-0.195966	0
2326.05	0.305924	-0.195967	0
2326.06	0.298136	-0.195964	0
2326.07	0.290272	-0.19597	0
2326.08	0.282083	-0.195971	0
2326.09	0.274238	-0.195963	0
2326.1	0.26645	-0.195969	0
2326.11	0.258623	-0.195968	0
2326.13	0.250854	-0.195969	0
2326.14	0.243028	-0.195971	0
2326.15	0.235278	-0.195971	0
2326.16	0.227185	-0.195971	0
2326.17	0.219531	-0.195966	0
2326.18	0.211991	-0.195967	0
2326.19	0.204203	-0.195973	0
2326.2	0.196739	-0.195973	0
2326.21	0.188951	-0.195965	0
2326.22	0.181373	-0.19597	0
2326.24	0.173852	-0.195968	0
2326.25	0.165854	-0.195963	0
2326.26	0.158314	-0.19597	0
2326.27	0.150584	-0.195965	0
2326.28	0.142815	-0.195973	0
2326.29	0.135237	-0.195973	0
2326.31	0.127659	-0.195967	0
2326.32	0.120138	-0.195978	0
2326.33	0.112636	-0.195968	0
2326.34	0.10502	-0.19597	0
2326.36	0.0970981	-0.195971	0
2326.37	0.0892719	-0.195971	0
2326.38	0.0815793	-0.195966	0
2326.4	0.0740204	-0.195964	0
2326.41	0.0665377	-0.195974	0
2326.43	0.0589024	-0.19597	0
2326.44	0.0513053	-0.19597	0
2326.45	0.0435363	-0.195967	0
2326.47	0.0358819	-0.195969	0
2326.48	0.028342	-0.195971	0
2326.5	0.0206304	-0.195973	0
2326.51	0.0130332	-0.195968	0
2326.53	0.00560786	-0.195972	0
2326.54	-0.00187476	-0.195966	0
2326.56	-0.00945282	-0.195973	0
2326.58	-0.0172027	-0.195971	0
2326.59	-0.0245517	-0.19597	0
2326.61	-0.0320343	-0.195965	0
2326.63	-0.0394405	-0.195967	0
2326.65	-0.0467132	-0.195969	0
2326.67	-0.0540622	-0.195971	0
2326.7	-0.0613348	-0.195968	0
2326.73	-0.0687029	-0.19597	0
2326.8	-0.0759947	-0.195966	0
2331.95	-0.0831528	-0.195968	0
2335.51	-0.0903491	-0.195971	0
2338.82	-0.0975645	-0.195974	0
2342.91	-0.104818	-0.19597	0
2349.17	-0.112014	-0.195971	0
2387.45	0.91391	-0.195964	0
2387.45	0.903312	-0.19597	0
2387.45	0.892985	-0.19597	0
2387.46	0.883956	-0.195966	0
2387.46	0.875691	-0.195966	0
2387.46	0.86651	-0.195966	0
2387.47	0.856488	-0.195964	0
2387.47	0.847001	-0.195966	0
2387.48	0.837973	-0.19597	0
2387.48	0.828925	-0.19597	0
2387.48	0.820717	-0.195969	0
2387.49	0.812452	-0.19597	0
2387.49	0.804492	-0.195967	0
2387.5	0.796246	-0.19597	0
2387.5	0.78758	-0.195973	0
2387.51	0.779276	-0.195969	0
2387.51	0.770419	-0.195966	0
2387.52	0.761619	-0.195968	0
2387.52	0.753125	-0.195973	0
2387.53	0.744211	-0.195968	0
2387.53	0.735869	-0.195968	0
2387.54	0.72791	-0.195968	0
2387.54	0.719702	-0.19597	0
2387.55	0.711169	-0.195968	0
2387.56	0.702637	-0.195968	0
2387.56	0.694142	-0.195965	0
2387.57	0.686068	-0.195968	0
2387.57	0.678375	-0.195964	0
2387.58	0.670167	-0.195971	0
2387.59	0.66215	-0.195966	0
2387.59	0.654343	-0.195968	0
2387.6	0.646383	-0.195966	0
2387.6	0.638481	-0.195967	0
2387.61	0.630578	-0.195971	0
2387.62	0.622504	-0.195969	0
2387.62	0.614639	-0.195967	0
2387.63	0.606641	-0.195966	0
2387.64	0.59893	-0.195967	0
2387.64	0.590626	-0.195972	0
2387.65	0.582686	-0.195971	0
2387.66	0.574401	-0.195968	0
2387.66	0.566556	-0.195963	0
2387.67	0.558138	-0.19597	0
2387.68	0.550369	-0.195968	0
2387.69	0.542352	-0.195968	0
2387.69	0.53443	-0.195966	0
2387.7	0.526413	-0.195967	0
2387.71	0.518434	-0.195968	0
2387.72	0.510646	-0.19597	0
2387.72	0.502419	-0.195968	0
2387.73	0.494383	-0.195963	0
2387.74	0.486843	-0.195968	0
2387.75	0.479074	-0.195968	0
2387.75	0.470924	-0.195966	0
2387.76	0.462658	-0.195969	0
2387.77	0.45445	-0.195969	0
2387.78	0.446548	-0.195975	0
2387.79	0.438874	-0.19597	0
2387.8	0.430972	-0.19597	0
2387.8	0.423413	-0.195957	0
2387.81	0.415606	-0.195968	0
2387.82	0.407799	-0.195973	0
2387.83	0.399839	-0.195966	0
2387.84	0.392013	-0.195968	0
2387.85	0.384396	-0.195967	0
2387.86	0.376627	-0.195967	0
2387.86	0.36903	-0.195973	0
2387.87	0.360746	-0.19597	0
2387.88	0.353263	-0.19597	0
2387.89	0.345074	-0.195971	0
2387.9	0.337134	-0.19597	0
2387.91	0.329193	-0.195973	0
2387.92	0.321844	-0.19597	0
2387.93	0.313731	-0.19597	0
2387.94	0.306039	-0.19597	0
2387.95	0.298403	-0.19597	0
2387.96	0.290195	-0.195975	0
2387.97	0.28277	-0.195967	0
2387.98	0.275211	-0.195968	0
2387.99	0.267442	-0.195967	0
2388	0.259941	-0.195968	0
2388.01	0.252305	-0.195966	0
2388.02	0.244651	-0.195973	0
2388.03	0.236996	-0.195975	0
2388.04	0.22938	-0.195968	0
2388.05	0.221897	-0.195967	0
2388.06	0.214129	-0.195966	0
2388.07	0.206398	-0.195975	0
2388.08	0.198972	-0.195968	0
2388.09	0.191165	-0.195971	0
2388.1	0.183549	-0.195971	0
2388.11	0.175952	-0.195975	0
2388.12	0.168298	-0.195973	0
2388.14	0.160471	-0.195975	0
2388.15	0.152492	-0.195964	0
2388.16	0.144838	-0.195968	0
2388.17	0.136878	-0.195966	0
2388.18	0.1293	-0.195971	0
2388.2	0.121378	-0.195968	0
2388.21	0.113781	-0.195975	0
2388.22	0.106241	-0.195968	0
2388.23	0.098587	-0.195968	0
2388.25	0.0906654	-0.195973	0
2388.26	0.0829919	-0.195966	0
2388.27	0.0751084	-0.195971	0
2388.29	0.067454	-0.195965	0
2388.3	0.0593414	-0.195971	0
2388.32	0.0515916	-0.195965	0
2388.33	0.0440517	-0.195972	0
2388.34	0.0365118	-0.195963	0
2388.36	0.0289147	-0.195973	0
2388.37	0.0210503	-0.19597	0
2388.39	0.0132432	-0.195973	0
2388.41	0.00551242	-0.195966	0
2388.42	-0.00223744	-0.195964	0
2388.44	-0.00966279	-0.195969	0
2388.45	-0.017279	-0.195974	0
2388.47	-0.0247807	-0.19597	0
2388.49	-0.0323206	-0.195975	0
2388.51	-0.0397269	-0.19598	0
2388.53	-0.047534	-0.195964	0
2388.55	-0.0549593	-0.195972	0
2388.58	-0.0624038	-0.19597	0
2388.62	-0.0697337	-0.195966	0
2388.69	-0.0771209	-0.195969	0
2393.01	-0.0843744	-0.195971	0
2396.6	-0.0915325	-0.19597	0
2400.19	-0.0986716	-0.195973	0
2404.58	-0.10583	-0.195975	0
2411.8	-0.113102	-0.195973	0
2448.78	0.910623	-0.195968	0
2448.78	0.900372	-0.195968	0
2448.78	0.890179	-0.195964	0
2448.79	0.881341	-0.19597	0
2448.79	0.873	-0.195966	0
2448.79	0.863818	-0.195968	0
2448.8	0.855515	-0.195966	0
2448.8	0.846868	-0.195966	0
2448.8	0.837591	-0.195969	0
2448.81	0.828505	-0.195968	0
2448.81	0.819762	-0.195966	0
2448.82	0.810772	-0.195973	0
2448.82	0.802182	-0.19597	0
2448.83	0.794051	-0.195968	0
2448.83	0.785671	-0.195965	0
2448.83	0.777845	-0.195968	0
2448.84	0.769579	-0.195972	0
2448.84	0.761219	-0.19597	0
2448.85	0.752724	-0.195969	0
2448.85	0.744535	-0.195963	0
2448.86	0.73606	-0.19597	0
2448.87	0.728158	-0.195968	0
2448.87	0.720255	-0.195968	0
2448.88	0.712085	-0.195966	0
2448.88	0.703763	-0.195968	0
2448.89	0.695631	-0.195964	0
2448.89	0.687633	-0.195971	0
2448.9	0.679521	-0.195968	0
2448.9	0.671733	-0.195962	0
2448.91	0.664174	-0.195969	0
2448.92	0.656309	-0.19596	0
2448.92	0.648178	-0.195973	0
2448.93	0.63955	-0.195969	0
2448.93	0.631342	-0.195971	0
2448.94	0.623248	-0.195967	0
2448.95	0.615289	-0.19597	0
2448.95	0.606928	-0.195964	0
2448.96	0.598739	-0.195965	0
2448.97	0.590703	-0.195972	0
2448.97	0.582552	-0.19597	0
2448.98	0.574363	-0.195968	0
2448.99	0.566346	-0.195971	0
2449	0.558501	-0.195965	0
2449	0.550751	-0.195968	0
2449.01	0.542486	-0.195968	0
2449.02	0.535003	-0.19597	0
2449.02	0.527196	-0.195963	0
2449.03	0.519083	-0.195963	0
2449.04	0.511505	-0.195964	0
2449.05	0.50345	-0.195968	0
2449.05	0.495662	-0.195969	0
2449.06	0.487435	-0.195966	0
2449.07	0.479742	-0.195965	0
2449.08	0.471783	-0.195967	0
2449.08	0.464033	-0.195967	0
2449.09	0.455844	-0.195967	0
2449.1	0.447865	-0.195969	0
2449.11	0.439848	-0.195966	0
2449.12	0.431983	-0.195967	0
2449.12	0.424272	-0.195966	0
2449.13	0.41614	-0.195966	0
2449.14	0.40818	-0.195968	0
2449.15	0.400679	-0.195966	0
2449.16	0.392642	-0.195968	0
2449.17	0.384606	-0.195965	0
2449.18	0.376627	-0.195964	0
2449.18	0.368973	-0.19597	0
2449.19	0.36149	-0.19597	0
2449.2	0.353893	-0.195965	0
2449.21	0.34622	-0.195967	0
2449.22	0.338813	-0.195968	0
2449.23	0.331083	-0.19597	0
2449.24	0.323638	-0.19597	0
2449.25	0.315774	-0.195966	0
2449.25	0.308272	-0.195967	0
2449.26	0.300732	-0.195964	0
2449.27	0.292791	-0.195971	0
2449.28	0.285003	-0.195965	0
2449.29	0.277292	-0.195968	0
2449.3	0.269866	-0.19597	0
2449.31	0.262002	-0.195969	0
2449.32	0.254405	-0.195964	0
2449.33	0.246712	-0.195964	0
2449.34	0.238905	-0.195968	0
2449.35	0.230926	-0.195969	0
2449.36	0.222947	-0.195973	0
2449.37	0.215579	-0.195968	0
2449.38	0.207753	-0.195966	0
2449.39	0.20006	-0.195967	0
2449.4	0.19275	-0.19597	0
2449.42	0.184962	-0.195968	0
2449.43	0.177422	-0.195963	0
2449.44	0.169309	-0.195968	0
2449.45	0.16154	-0.195968	0
2449.46	0.153848	-0.195968	0
2449.47	0.146308	-0.195966	0
2449.48	0.138558	-0.195968	0
2449.5	0.13098	-0.195968	0
2449.51	0.12344	-0.195968	0
2449.52	0.116148	-0.195968	0
2449.53	0.108627	-0.195971	0
2449.54	0.100935	-0.195971	0
2449.56	0.0933759	-0.195964	0
2449.57	0.0859506	-0.195966	0
2449.58	0.0778762	-0.195968	0
2449.6	0.06984	-0.195968	0
2449.61	0.0623765	-0.195967	0
2449.62	0.0547984	-0.195972	0
2449.64	0.0471631	-0.195966	0
2449.65	0.0395278	-0.195968	0
2449.67	0.0321215	-0.195966	0
2449.68	0.024448	-0.19597	0
2449.69	0.0171372	-0.195965	0
2449.71	0.0096164	-0.19597	0
2449.72	0.0019429	-0.195964	0
2449.74	-0.00576878	-0.195977	0
2449.76	-0.0134041	-0.195966	0
2449.77	-0.020944	-0.19597	0
2449.79	-0.0284839	-0.195971	0
2449.81	-0.0360428	-0.195971	0
2449.83	-0.0434491	-0.195961	0
2449.85	-0.0510653	-0.195965	0
2449.88	-0.0588915	-0.195972	0
2449.91	-0.0661451	-0.195966	0
2449.96	-0.0735514	-0.195969	0
2450.15	-0.0809958	-0.195966	0
2455.42	-0.088173	-0.195971	0
2458.95	-0.0954075	-0.195966	0
2463.14	-0.102604	-0.195974	0
2468.86	-0.109724	-0.195974	0
2483.33	-0.116844	-0.195972	0
2509.65	0.905049	-0.195967	0
2509.66	0.894226	-0.195965	0
2509.66	0.884338	-0.19597	0
2509.66	0.875653	-0.195974	0
2509.67	0.866968	-0.195968	0
2509.67	0.858894	-0.195969	0
2509.67	0.849655	-0.19596	0
2509.68	0.840072	-0.195962	0
2509.68	0.830948	-0.195968	0
2509.68	0.821881	-0.19597	0
2509.69	0.813043	-0.19597	0
2509.69	0.804205	-0.195967	0
2509.7	0.795711	-0.195968	0
2509.7	0.787847	-0.195973	0
2509.71	0.779772	-0.195971	0
2509.71	0.771526	-0.195973	0
2509.72	0.763395	-0.195968	0
2509.72	0.7549	-0.195966	0
2509.73	0.746578	-0.195971	0
2509.73	0.738408	-0.195967	0
2509.74	0.730009	-0.195965	0
2509.74	0.721591	-0.19597	0
2509.75	0.713269	-0.19597	0
2509.75	0.705023	-0.195968	0
2509.76	0.697101	-0.195972	0
2509.76	0.688607	-0.195974	0
2509.77	0.680513	-0.195968	0
2509.77	0.672382	-0.195966	0
2509.78	0.664269	-0.195968	0
2509.79	0.655985	-0.195966	0
2509.79	0.647796	-0.195971	0
2509.8	0.639779	-0.195965	0
2509.8	0.6318	-0.195966	0
2509.81	0.624088	-0.195971	0
2509.82	0.616014	-0.195978	0
2509.82	0.608264	-0.195968	0
2509.83	0.600495	-0.195965	0
2509.84	0.592497	-0.195967	0
2509.84	0.5849	-0.195968	0
2509.85	0.576921	-0.195971	0
2509.85	0.569152	-0.195971	0
2509.86	0.561078	-0.195969	0
2509.87	0.552889	-0.195968	0
2509.88	0.544585	-0.195966	0
2509.88	0.536492	-0.195967	0
2509.89	0.528284	-0.195972	0
2509.9	0.520267	-0.19597	0
2509.9	0.512383	-0.195966	0
2509.91	0.504424	-0.195964	0
2509.92	0.495929	-0.195966	0
2509.93	0.488179	-0.195968	0
2509.93	0.479933	-0.195966	0
2509.94	0.471954	-0.195969	0
2509.95	0.464166	-0.195967	0
2509.96	0.456359	-0.195967	0
2509.97	0.448724	-0.195969	0
2509.97	0.44086	-0.195967	0
2509.98	0.432823	-0.195961	0
2509.99	0.424844	-0.19597	0
2510	0.417095	-0.195971	0
2510.01	0.409268	-0.195967	0
2510.01	0.400908	-0.195971	0
2510.02	0.393043	-0.195966	0
2510.03	0.38516	-0.195967	0
2510.04	0.377276	-0.195969	0
2510.05	0.368992	-0.195966	0
2510.06	0.361051	-0.195966	0
2510.07	0.353187	-0.195967	0
2510.07	0.345742	-0.195967	0
2510.08	0.338145	-0.195972	0
2510.09	0.330739	-0.195968	0
2510.1	0.323027	-0.195964	0
2510.11	0.315297	-0.19597	0
2510.12	0.307279	-0.195959	0
2510.13	0.299606	-0.195972	0
2510.14	0.291169	-0.19597	0
2510.15	0.283457	-0.19597	0
2510.16	0.275478	-0.195966	0
2510.17	0.267824	-0.19597	0
2510.17	0.26036	-0.195966	0
2510.18	0.252725	-0.19597	0
2510.19	0.244956	-0.195968	0
2510.2	0.237015	-0.195963	0
2510.22	0.228998	-0.195973	0
2510.23	0.221077	-0.19597	0
2510.24	0.213098	-0.195972	0
2510.25	0.205214	-0.195968	0
2510.26	0.197522	-0.195969	0
2510.27	0.189676	-0.195962	0
2510.28	0.182041	-0.195968	0
2510.29	0.174558	-0.195967	0
2510.3	0.166656	-0.195968	0
2510.31	0.15883	-0.195971	0
2510.32	0.151004	-0.195968	0
2510.34	0.143387	-0.195965	0
2510.35	0.135943	-0.19597	0
2510.36	0.127907	-0.195971	0
2510.37	0.12008	-0.195964	0
2510.38	0.112464	-0.195966	0
2510.4	0.104886	-0.195968	0
2510.41	0.0971172	-0.195966	0
2510.42	0.08973	-0.195964	0
2510.43	0.0820947	-0.195967	0
2510.45	0.074364	-0.195975	0
2510.46	0.0669386	-0.195967	0
2510.47	0.0593605	-0.195968	0
2510.49	0.0516489	-0.195969	0
2510.5	0.0440517	-0.195971	0
2510.51	0.0365882	-0.195964	0
2510.53	0.0290292	-0.195964	0
2510.54	0.0216993	-0.195968	0
2510.56	0.0143121	-0.195967	0
2510.57	0.0068486	-0.195971	0
2510.59	-0.000729461	-0.195971	0
2510.6	-0.00823117	-0.195967	0
2510.62	-0.015771	-0.195966	0
2510.64	-0.02354	-0.195971	0
2510.66	-0.0313471	-0.195978	0
2510.67	-0.0386198	-0.195973	0
2510.69	-0.0461405	-0.195973	0
2510.72	-0.0535277	-0.195969	0
2510.75	-0.060934	-0.195967	0
2510.78	-0.0681112	-0.195963	0
2510.84	-0.0753838	-0.195966	0
2513.05	-0.0825992	-0.195971	0
2516.53	-0.0897573	-0.195967	0
2520.16	-0.0969154	-0.195963	0
2524.81	-0.104016	-0.195977	0
2531.33	-0.111155	-0.195978	0
2545.65	-0.117073	-0.19597	0