File: EXPERIMENTAL/DATA/Electrochemical-cycling/S-series/2024-07-02_S22_Icell_t0000_C0050_J01_deltaX-110,1mm_LFP_02_CP_C05.txt
time/s	Ewe/V	I/mA	error
60.0524	-0.372573	-0.594791	0
60.0532	-0.74633	-0.768819	0
60.054	-0.871943	-0.777201	0
60.0548	-0.945116	-0.780414	0
60.0556	-0.988488	-0.781585	0
60.0564	-1.02718	-0.782234	0
60.0572	-1.06346	-0.78233	0
60.058	-1.09669	-0.782559	0
60.0588	-1.12678	-0.782979	0
60.0596	-1.1402	-0.783564	0
60.0604	-1.1616	-0.783501	0
60.0614	-1.17517	-0.783895	0
60.0622	-1.1883	-0.783927	0
60.063	-1.2039	-0.783851	0
60.0638	-1.21925	-0.783921	0
60.0646	-1.23311	-0.783876	0
60.0662	-1.24697	-0.784284	0
60.067	-1.25548	-0.784284	0
60.0686	-1.26264	-0.784506	0
60.0694	-1.26793	-0.784506	0
60.0702	-1.27459	-0.784494	0
60.071	-1.28087	-0.784506	0
60.0718	-1.28809	-0.784538	0
60.0726	-1.2955	-0.784519	0
60.0736	-1.30353	-0.784455	0
60.0746	-1.30955	-0.784475	0
60.0772	-1.31462	-0.78471	0
60.078	-1.32012	-0.784691	0
60.079	-1.32568	-0.784672	0
60.0798	-1.33224	-0.784621	0
60.0806	-1.3379	-0.784614	0
60.082	-1.3445	-0.784691	0
60.083	-1.35177	-0.784589	0
60.0848	-1.35819	-0.784614	0
60.0856	-1.3651	-0.784608	0
60.087	-1.37134	-0.784678	0
60.0882	-1.37707	-0.784704	0
60.089	-1.38272	-0.784627	0
60.0904	-1.38858	-0.784672	0
60.0914	-1.39608	-0.784614	0
60.0926	-1.40169	-0.784621	0
60.094	-1.40935	-0.784634	0
60.095	-1.41527	-0.784659	0
60.0962	-1.42027	-0.784672	0
60.0974	-1.42561	-0.784653	0
60.0984	-1.43128	-0.784736	0
60.0994	-1.43615	-0.784748	0
60.1006	-1.44182	-0.784767	0
60.1018	-1.44755	-0.784685	0
60.103	-1.45263	-0.784742	0
60.1038	-1.45898	-0.784678	0
60.1058	-1.4612	-0.784729	0
60.1068	-1.46637	-0.784761	0
60.108	-1.47219	-0.784748	0
60.1094	-1.47786	-0.784704	0
60.1112	-1.48403	-0.784748	0
60.1128	-1.48886	-0.784774	0
60.1138	-1.49386	-0.784793	0
60.1148	-1.49982	-0.784729	0
60.117	-1.50556	-0.784697	0
60.1184	-1.51125	-0.784742	0
60.1196	-1.5173	-0.784748	0
60.121	-1.52252	-0.784812	0
60.1226	-1.52874	-0.784786	0
60.124	-1.53523	-0.784723	0
60.1256	-1.5409	-0.784704	0
60.1272	-1.54691	-0.784818	0
60.13	-1.55295	-0.784748	0
60.1312	-1.55905	-0.784755	0
60.1328	-1.56429	-0.784697	0
60.1348	-1.56988	-0.78471	0
60.1368	-1.57612	-0.784793	0
60.138	-1.5817	-0.784786	0
60.1388	-1.58729	-0.784742	0
60.1402	-1.593	-0.784793	0
60.1414	-1.59876	-0.784729	0
60.1432	-1.6051	-0.784793	0
60.1448	-1.6105	-0.784755	0
60.1466	-1.61716	-0.784761	0
60.1486	-1.6232	-0.784767	0
60.1514	-1.62789	-0.784844	0
60.1528	-1.6337	-0.784856	0
60.1544	-1.63902	-0.784736	0
60.1558	-1.64563	-0.784793	0
60.1578	-1.65137	-0.784767	0
60.1592	-1.65922	-0.784799	0
60.1602	-1.66447	-0.784736	0
60.162	-1.66972	-0.784742	0
60.1632	-1.67531	-0.78471	0
60.1652	-1.6811	-0.784697	0
60.1676	-1.68577	-0.784818	0
60.169	-1.69217	-0.784793	0
60.171	-1.69824	-0.784799	0
60.1726	-1.7045	-0.78478	0
60.1754	-1.71006	-0.784818	0
60.179	-1.71586	-0.784799	0
60.1806	-1.72084	-0.78485	0
60.183	-1.72646	-0.784799	0
60.185	-1.73277	-0.78485	0
60.187	-1.73822	-0.784818	0
60.1892	-1.74389	-0.784793	0
60.1922	-1.74917	-0.784812	0
60.1956	-1.75465	-0.784907	0
60.1978	-1.76072	-0.784844	0
60.1992	-1.76761	-0.784818	0
60.2008	-1.77292	-0.784825	0
60.2026	-1.7776	-0.784831	0
60.2062	-1.78363	-0.78485	0
60.2082	-1.78919	-0.784844	0
60.2106	-1.79549	-0.784805	0
60.2132	-1.79988	-0.784805	0
60.2156	-1.80509	-0.784869	0
60.218	-1.81095	-0.784831	0
60.22	-1.81582	-0.784805	0
60.2226	-1.82099	-0.784856	0
60.2248	-1.82658	-0.784831	0
60.2272	-1.83378	-0.784856	0
60.2304	-1.83901	-0.784875	0
60.2336	-1.83972	-0.784907	0
60.2358	-1.84472	-0.784863	0
60.2384	-1.84976	-0.784863	0
60.241	-1.8551	-0.784825	0
60.2444	-1.86037	-0.784844	0
60.2466	-1.86534	-0.784818	0
60.25	-1.87181	-0.784901	0
60.2542	-1.87681	-0.784818	0
60.258	-1.88204	-0.784863	0
60.26	-1.88861	-0.784907	0
60.2628	-1.89401	-0.78485	0
60.2652	-1.89901	-0.784869	0
60.2706	-1.90241	-0.784882	0
60.2726	-1.90756	-0.784831	0
60.2764	-1.91314	-0.784882	0
60.2792	-1.91848	-0.784844	0
60.2818	-1.92356	-0.78485	0
60.2836	-1.92896	-0.784888	0
60.289	-1.93446	-0.784901	0
60.2918	-1.93994	-0.784882	0
60.2946	-1.94536	-0.78485	0
60.2976	-1.95017	-0.784818	0
60.3014	-1.95521	-0.784863	0
60.3044	-1.95895	-0.784907	0
60.3058	-1.96441	-0.784825	0
60.3072	-1.97003	-0.784888	0
60.3092	-1.97554	-0.784895	0
60.3132	-1.98179	-0.784793	0
60.3172	-1.98707	-0.784907	0
60.3208	-1.99204	-0.784844	0
60.3238	-1.99643	-0.784882	0
60.3266	-2.00074	-0.784844	0
60.3306	-2.00521	-0.784926	0
60.3332	-2.01107	-0.784875	0
60.3362	-2.01546	-0.78485	0
60.339	-2.02021	-0.784863	0
60.3418	-2.02449	-0.784831	0
60.346	-2.02947	-0.784837	0
60.348	-2.03461	-0.78485	0
60.3504	-2.04007	-0.784882	0
60.3536	-2.04475	-0.784882	0
60.3566	-2.04896	-0.784907	0
60.3598	-2.05343	-0.784888	0
60.3618	-2.0582	-0.784901	0
60.3662	-2.06412	-0.784895	0
60.3684	-2.06951	-0.784869	0
60.3706	-2.07565	-0.784901	0
60.3726	-2.07899	-0.784856	0
60.374	-2.08432	-0.784844	0
60.3762	-2.08995	-0.784837	0
60.3782	-2.09545	-0.784914	0
60.382	-2.10076	-0.784914	0
60.3844	-2.10408	-0.784939	0
60.3872	-2.10988	-0.78485	0
60.3914	-2.11509	-0.784837	0
60.3932	-2.12017	-0.784869	0
60.3966	-2.12492	-0.784812	0
60.3994	-2.1309	-0.784825	0
60.4022	-2.13611	-0.784812	0
60.406	-2.14136	-0.784856	0
60.4094	-2.14629	-0.784888	0
60.413	-2.15169	-0.784895	0
60.4162	-2.15719	-0.784837	0
60.4188	-2.16295	-0.784875	0
60.422	-2.16809	-0.784825	0
60.4256	-2.17315	-0.784856	0
60.4286	-2.1784	-0.784863	0
60.4322	-2.18431	-0.784805	0
60.435	-2.19059	-0.784844	0
60.4388	-2.19521	-0.784888	0
60.4412	-2.20029	-0.784837	0
60.4432	-2.20621	-0.784895	0
60.4456	-2.21137	-0.784831	0
60.4498	-2.21726	-0.784844	0
60.4522	-2.2225	-0.784786	0
60.4554	-2.22748	-0.784875	0
60.4588	-2.23406	-0.784869	0
60.461	-2.23937	-0.784882	0
60.4658	-2.24506	-0.784875	0
60.4686	-2.25041	-0.784907	0
60.4712	-2.25537	-0.784837	0
60.4766	-2.26045	-0.784863	0
60.479	-2.26579	-0.784812	0
60.482	-2.27049	-0.784844	0
60.484	-2.27539	-0.78492	0
60.487	-2.28083	-0.784869	0
60.4898	-2.28757	-0.784856	0
60.492	-2.2925	-0.784869	0
60.4952	-2.29842	-0.784882	0
60.4978	-2.30357	-0.784863	0
60.4996	-2.30884	-0.784888	0
60.5018	-2.31419	-0.784863	0
60.504	-2.31894	-0.784837	0
60.5076	-2.32499	-0.784831	0
60.5098	-2.33014	-0.784837	0
60.5118	-2.33559	-0.784774	0
60.5156	-2.34068	-0.784825	0
60.5184	-2.34576	-0.784888	0
60.522	-2.35063	-0.784856	0
60.5246	-2.35655	-0.784869	0
60.5276	-2.36218	-0.784914	0
60.53	-2.36687	-0.784945	0
60.532	-2.37186	-0.784844	0
60.5338	-2.37735	-0.784875	0
60.536	-2.38318	-0.784761	0
60.5382	-2.38633	-0.784844	0
60.5424	-2.39141	-0.784748	0
60.545	-2.39604	-0.784831	0
60.5472	-2.40051	-0.784882	0
60.5492	-2.40526	-0.784856	0
60.552	-2.41107	-0.784837	0
60.5546	-2.41597	-0.784888	0
60.5582	-2.42082	-0.784869	0
60.561	-2.42565	-0.784837	0
60.5636	-2.43077	-0.784888	0
60.5672	-2.43621	-0.784888	0
60.5708	-2.44182	-0.784869	0
60.574	-2.44667	-0.784856	0
60.5768	-2.45175	-0.78492	0
60.5804	-2.45704	-0.78485	0
60.584	-2.46215	-0.784939	0
60.5872	-2.46425	-0.784895	0
60.5914	-2.46975	-0.784844	0
60.5936	-2.47477	-0.784882	0
60.5968	-2.48012	-0.784888	0
60.6006	-2.48477	-0.784875	0
60.6048	-2.4896	-0.784818	0
60.6076	-2.49428	-0.784901	0
60.6108	-2.49879	-0.784856	0
60.6158	-2.50354	-0.784869	0
60.6204	-2.50839	-0.784926	0
60.624	-2.51362	-0.784888	0
60.6268	-2.51847	-0.784914	0
60.6312	-2.52336	-0.784933	0
60.6358	-2.52805	-0.784945	0
60.6402	-2.53242	-0.784907	0
60.6446	-2.5371	-0.784939	0
60.6484	-2.54266	-0.784901	0
60.6534	-2.54766	-0.784901	0
60.6574	-2.55306	-0.784831	0
60.6606	-2.55829	-0.784933	0
60.666	-2.5632	-0.784914	0
60.6708	-2.56787	-0.784882	0
60.6734	-2.57284	-0.784901	0
60.6792	-2.57774	-0.784945	0
60.6834	-2.58202	-0.784926	0
60.6862	-2.58695	-0.78492	0
60.69	-2.5921	-0.784901	0
60.6944	-2.59685	-0.784888	0
60.6986	-2.60163	-0.784863	0
60.7034	-2.60626	-0.784907	0
60.7064	-2.61081	-0.784914	0
60.7098	-2.61581	-0.784875	0
60.7146	-2.62073	-0.784926	0
60.7174	-2.62555	-0.784882	0
60.7222	-2.6303	-0.784875	0
60.7266	-2.63574	-0.784895	0
60.7308	-2.64078	-0.784914	0
60.7342	-2.64341	-0.784914	0
60.7374	-2.64777	-0.784945	0
60.7402	-2.65214	-0.784895	0
60.744	-2.65664	-0.784901	0
60.7478	-2.66119	-0.784875	0
60.7506	-2.66584	-0.784952	0
60.7576	-2.67066	-0.784926	0
60.7612	-2.67596	-0.784888	0
60.7664	-2.68064	-0.784863	0
60.7716	-2.68608	-0.784875	0
60.7768	-2.69093	-0.784907	0
60.781	-2.69553	-0.784914	0
60.7856	-2.70032	-0.784926	0
60.791	-2.70504	-0.784977	0
60.7944	-2.70954	-0.784901	0
60.7986	-2.71426	-0.78492	0
60.8032	-2.72018	-0.784895	0
60.8072	-2.7252	-0.784882	0
60.81	-2.73006	-0.784869	0
60.814	-2.73476	-0.784895	0
60.8176	-2.73921	-0.784901	0
60.8234	-2.74404	-0.78492	0
60.8266	-2.74906	-0.784958	0
60.8312	-2.75372	-0.784869	0
60.8368	-2.75866	-0.784863	0
60.8424	-2.76328	-0.78499	0
60.8486	-2.76796	-0.784958	0
60.854	-2.77288	-0.78499	0
60.86	-2.77764	-0.784831	0
60.865	-2.78006	-0.784984	0
60.8724	-2.78453	-0.78492	0
60.879	-2.78976	-0.784863	0
60.8842	-2.79474	-0.784984	0
60.8888	-2.79949	-0.78485	0
60.8956	-2.80408	-0.784907	0
60.901	-2.80971	-0.784939	0
60.9046	-2.81479	-0.784901	0
60.9148	-2.81923	-0.784882	0
60.9202	-2.82439	-0.784939	0
60.926	-2.82922	-0.784939	0
60.9302	-2.82893	-0.784926	0
60.937	-2.83428	-0.784901	0
60.9438	-2.83873	-0.784907	0
60.9494	-2.84378	-0.784958	0
60.9566	-2.84814	-0.784945	0
60.9628	-2.85299	-0.784882	0
60.9686	-2.85791	-0.784888	0
60.9736	-2.86307	-0.784875	0
60.9804	-2.86837	-0.784952	0
60.9882	-2.87322	-0.784895	0
60.9928	-2.87776	-0.784977	0
60.9986	-2.88231	-0.784907	0
61.0058	-2.88678	-0.78492	0
61.0128	-2.89202	-0.784888	0
61.019	-2.89722	-0.784945	0
61.0266	-2.89957	-0.784977	0
61.0304	-2.90516	-0.784933	0
61.0334	-2.9073	-0.784958	0
61.0396	-2.91255	-0.78499	0
61.0482	-2.91749	-0.784945	0
61.0544	-2.92224	-0.784939	0
61.062	-2.92253	-0.784882	0
61.067	-2.92686	-0.784952	0
61.0718	-2.92978	-0.784971	0
61.08	-2.9341	-0.784895	0
61.0858	-2.9395	-0.784901	0
61.0916	-2.94498	-0.784939	0
61.096	-2.94679	-0.784945	0
61.1002	-2.95191	-0.784977	0
61.103	-2.95227	-0.784945	0
61.1086	-2.95762	-0.78499	0
61.1194	-2.96193	-0.784933	0
61.127	-2.9642	-0.784984	0
61.1346	-2.96919	-0.784939	0
61.1418	-2.97392	-0.784945	0
61.149	-2.97841	-0.785015	0
61.1554	-2.98286	-0.78492	0
61.16	-2.98727	-0.78485	0
61.1714	-2.99158	-0.784933	0
61.1768	-2.99593	-0.784984	0
61.187	-3.00065	-0.784965	0
61.1952	-3.00502	-0.784933	0
61.1992	-3.0097	-0.784926	0
61.205	-3.01434	-0.784984	0
61.2112	-3.01926	-0.784945	0
61.2184	-3.02207	-0.784958	0
61.2246	-3.02692	-0.784888	0
61.232	-3.02968	-0.784971	0
61.2428	-3.03205	-0.784971	0
61.248	-3.03686	-0.784965	0
61.2586	-3.04186	-0.784945	0
61.2638	-3.04173	-0.784926	0
61.2688	-3.0462	-0.785009	0
61.2782	-3.05133	-0.784939	0
61.284	-3.05544	-0.78492	0
61.296	-3.06044	-0.784945	0
61.3008	-3.06506	-0.784914	0
61.3084	-3.06485	-0.784939	0
61.3168	-3.06945	-0.784977	0
61.3248	-3.07401	-0.785003	0
61.3408	-3.0785	-0.784984	0
61.3488	-3.08354	-0.784971	0
61.3612	-3.08858	-0.784914	0
61.3744	-3.09299	-0.784882	0
61.3792	-3.09747	-0.784914	0
61.3896	-3.10267	-0.784939	0
61.4022	-3.10494	-0.784945	0
61.4136	-3.10982	-0.784971	0
61.4314	-3.11435	-0.784984	0
61.4368	-3.12071	-0.784914	0
61.4474	-3.12387	-0.784945	0
61.4538	-3.12886	-0.784882	0
61.4666	-3.13113	-0.784996	0
61.4802	-3.13575	-0.784965	0
61.4942	-3.1401	-0.784933	0
61.505	-3.14516	-0.784945	0
61.5182	-3.14997	-0.784933	0
61.5272	-3.15234	-0.785003	0
61.5398	-3.15713	-0.784971	0
61.5484	-3.16148	-0.784965	0
61.5576	-3.16492	-0.78499	0
61.564	-3.16969	-0.78499	0
61.5738	-3.17444	-0.784907	0
61.5864	-3.17908	-0.784971	0
61.5954	-3.18323	-0.784939	0
61.604	-3.1858	-0.784965	0
61.6136	-3.19008	-0.784933	0
61.6258	-3.195	-0.784895	0
61.637	-3.19936	-0.785041	0
61.652	-3.19915	-0.784977	0
61.6608	-3.20369	-0.784939	0
61.6714	-3.20619	-0.784952	0
61.6844	-3.20886	-0.784901	0
61.6974	-3.21318	-0.784977	0
61.7056	-3.21843	-0.78492	0
61.7178	-3.21822	-0.78499	0
61.7238	-3.22288	-0.784977	0
61.731	-3.22532	-0.785003	0
61.7438	-3.22555	-0.784888	0
61.7476	-3.22778	-0.784958	0
61.7596	-3.22998	-0.785015	0
61.7662	-3.23456	-0.784958	0
61.772	-3.23483	-0.785009	0
61.7836	-3.23952	-0.784965	0
61.7918	-3.24223	-0.784856	0
61.797	-3.2446	-0.785028	0
61.8066	-3.24687	-0.784945	0
61.8166	-3.24912	-0.784875	0
61.8322	-3.25168	-0.784945	0
61.838	-3.2564	-0.784933	0
61.8466	-3.25842	-0.784965	0
61.856	-3.26073	-0.784914	0
61.866	-3.2634	-0.784926	0
61.8762	-3.26663	-0.784996	0
61.8988	-3.27205	-0.784945	0
61.91	-3.27238	-0.78499	0
61.9188	-3.27694	-0.784952	0
61.9274	-3.27938	-0.784895	0
61.9354	-3.27931	-0.784977	0
61.9412	-3.28169	-0.784952	0
61.9516	-3.28637	-0.784945	0
61.9592	-3.29116	-0.784914	0
61.972	-3.29116	-0.784952	0
61.9806	-3.29433	-0.784933	0
61.988	-3.29895	-0.784965	0
61.9942	-3.29643	-0.78499	0
62.0054	-3.29878	-0.784965	0
62.0114	-3.30134	-0.784933	0
62.0202	-3.30353	-0.784945	0
62.0234	-3.30061	-0.784952	0
62.0288	-3.30617	-0.784945	0
62.0362	-3.3072	-0.784901	0
62.0446	-3.31033	-0.784939	0
62.05	-3.30769	-0.784945	0
62.0608	-3.30817	-0.784933	0
62.0658	-3.31084	-0.784971	0
62.072	-3.31285	-0.784965	0
62.0804	-3.31556	-0.785015	0
62.0948	-3.31793	-0.784939	0
62.1034	-3.32243	-0.785028	0
62.1102	-3.32421	-0.784952	0
62.1248	-3.32671	-0.78492	0
62.1374	-3.32932	-0.784952	0
62.1432	-3.32942	-0.784952	0
62.149	-3.33156	-0.784914	0
62.159	-3.33642	-0.784939	0
62.167	-3.33877	-0.784958	0
62.1712	-3.34135	-0.784977	0
62.1948	-3.34654	-0.784984	0
62.2058	-3.35112	-0.784939	0
62.213	-3.35359	-0.784933	0
62.224	-3.35588	-0.78492	0
62.2418	-3.358	-0.784984	0
62.2538	-3.35826	-0.784914	0
62.2648	-3.36094	-0.784958	0
62.2806	-3.36313	-0.785009	0
62.2876	-3.36596	-0.784939	0
62.299	-3.36865	-0.785009	0
62.3132	-3.37111	-0.784952	0
62.3242	-3.37124	-0.784933	0
62.3368	-3.37636	-0.784958	0
62.3514	-3.3809	-0.784984	0
62.363	-3.38358	-0.784971	0
62.3732	-3.38579	-0.785073	0
62.3902	-3.38825	-0.784965	0
62.4004	-3.39114	-0.784971	0
62.422	-3.39095	-0.784971	0
62.427	-3.39551	-0.785009	0
62.433	-3.39612	-0.785003	0
62.4416	-3.39843	-0.784952	0
62.4508	-3.39851	-0.78492	0
62.4576	-3.40324	-0.784939	0
62.4628	-3.40324	-0.784958	0
62.4758	-3.40608	-0.784907	0
62.4846	-3.40872	-0.784996	0
62.4894	-3.41156	-0.784926	0
62.4952	-3.41133	-0.784914	0
62.4998	-3.41668	-0.784952	0
62.5142	-3.41887	-0.784952	0
62.5198	-3.42103	-0.785022	0
62.5282	-3.42052	-0.784984	0
62.5378	-3.41987	-0.784996	0
62.5414	-3.42223	-0.784965	0
62.5488	-3.42227	-0.784945	0
62.5554	-3.42466	-0.784971	0
62.5678	-3.4247	-0.784939	0
62.5702	-3.42764	-0.784939	0
62.5756	-3.42554	-0.78499	0
62.5798	-3.42351	-0.784984	0
62.5876	-3.42798	-0.784977	0
62.6024	-3.43312	-0.784933	0
62.6188	-3.43476	-0.785035	0
62.626	-3.4325	-0.784965	0
62.632	-3.43737	-0.784945	0
62.6428	-3.43754	-0.784945	0
62.6508	-3.44186	-0.784965	0
62.6626	-3.44199	-0.784971	0
62.6748	-3.44785	-0.784907	0
62.6794	-3.44522	-0.785041	0
62.6834	-3.44772	-0.784952	0
62.6924	-3.45261	-0.785003	0
62.7038	-3.45263	-0.785035	0
62.7116	-3.45776	-0.785003	0
62.7218	-3.45793	-0.784958	0
62.7292	-3.45568	-0.785009	0
62.733	-3.45713	-0.785035	0
62.7386	-3.4598	-0.784939	0
62.748	-3.46475	-0.785009	0
62.753	-3.46801	-0.785028	0
62.7594	-3.46799	-0.785003	0
62.766	-3.47303	-0.784907	0
62.7694	-3.47641	-0.784945	0
62.7766	-3.4787	-0.784965	0
62.7844	-3.48174	-0.784977	0
62.79	-3.48023	-0.784933	0
62.7966	-3.48567	-0.784971	0
62.8014	-3.48794	-0.784977	0
62.805	-3.48447	-0.78499	0
62.8092	-3.48756	-0.784971	0
62.828	-3.49123	-0.784958	0
62.8356	-3.4913	-0.784996	0
62.8462	-3.49644	-0.78492	0
62.852	-3.49613	-0.784945	0
62.8596	-3.50096	-0.784901	0
62.8642	-3.49846	-0.784939	0
62.8716	-3.50138	-0.784939	0
62.8858	-3.49961	-0.784977	0
62.8936	-3.50197	-0.784977	0
62.8978	-3.50444	-0.784971	0
62.9014	-3.50461	-0.784965	0
62.9048	-3.50489	-0.784933	0
62.9118	-3.50495	-0.784907	0
62.918	-3.5069	-0.785003	0
62.93	-3.51146	-0.784965	0
62.9354	-3.51591	-0.784945	0
62.9448	-3.51877	-0.784945	0
62.9562	-3.51856	-0.784965	0
62.9614	-3.52078	-0.784996	0
62.9734	-3.52303	-0.785079	0
62.9822	-3.52523	-0.784984	0
62.9884	-3.5229	-0.784996	0
62.9914	-3.52614	-0.784945	0
62.9966	-3.52335	-0.784952	0
63.0004	-3.52612	-0.784939	0
63.0056	-3.52692	-0.784958	0
63.0108	-3.5224	-0.785003	0
63.0142	-3.52801	-0.784952	0
63.0226	-3.52817	-0.785028	0
63.0288	-3.53303	-0.784965	0
63.0392	-3.53582	-0.784971	0
63.0436	-3.53313	-0.784958	0
63.0472	-3.53521	-0.784958	0
63.0558	-3.53301	-0.784958	0
63.0636	-3.53529	-0.784984	0
63.0692	-3.53775	-0.785009	0
63.078	-3.53775	-0.784939	0
63.0906	-3.53964	-0.784971	0
63.0994	-3.54223	-0.785009	0
63.1132	-3.54687	-0.784926	0
63.1232	-3.55214	-0.78492	0
63.1316	-3.55157	-0.784958	0
63.1386	-3.55382	-0.78499	0
63.142	-3.55598	-0.784939	0
63.146	-3.55575	-0.784984	0
63.1558	-3.55816	-0.784958	0
63.1638	-3.561	-0.785015	0
63.1756	-3.56358	-0.784977	0
63.1856	-3.56386	-0.784996	0
63.1922	-3.56337	-0.784984	0
63.1976	-3.56358	-0.784914	0
63.2048	-3.56554	-0.784939	0
63.2096	-3.5674	-0.784933	0
63.2242	-3.57226	-0.784926	0
63.2296	-3.57727	-0.784945	0
63.2374	-3.58189	-0.785003	0
63.243	-3.58238	-0.784965	0
63.2468	-3.58208	-0.784952	0
63.2542	-3.58129	-0.784945	0
63.2602	-3.58341	-0.784933	0
63.2672	-3.58885	-0.784952	0
63.2742	-3.59342	-0.784933	0
63.2796	-3.5934	-0.784977	0
63.2848	-3.59359	-0.785009	0
63.2898	-3.59525	-0.78499	0
63.3022	-3.59802	-0.785022	0
63.3082	-3.6001	-0.784914	0
63.3118	-3.60229	-0.784984	0
63.3186	-3.60487	-0.784933	0
63.3226	-3.60462	-0.785003	0
63.332	-3.60414	-0.784901	0
63.3366	-3.60372	-0.78499	0
63.348	-3.60817	-0.78499	0
63.3576	-3.60577	-0.784939	0
63.3648	-3.608	-0.78492	0
63.3736	-3.61262	-0.784914	0
63.3836	-3.61558	-0.784977	0
63.3912	-3.61797	-0.784888	0
63.4032	-3.6206	-0.784952	0
63.4112	-3.62333	-0.784926	0
63.4196	-3.62631	-0.784939	0
63.4256	-3.62062	-0.784939	0
63.43	-3.61661	-0.784971	0
63.4414	-3.62182	-0.78499	0
63.447	-3.62423	-0.784965	0
63.4532	-3.62509	-0.785009	0
63.46	-3.62459	-0.784939	0
63.4634	-3.62451	-0.784933	0
63.4702	-3.62932	-0.784996	0
63.4738	-3.62881	-0.785009	0
63.483	-3.6314	-0.784958	0
63.4916	-3.63356	-0.784945	0
63.5026	-3.63904	-0.784952	0
63.508	-3.64112	-0.784907	0
63.517	-3.64547	-0.784984	0
63.5222	-3.64767	-0.784914	0
63.529	-3.65107	-0.784958	0
63.5364	-3.65111	-0.78499	0
63.5444	-3.65141	-0.784939	0
63.5484	-3.65695	-0.784996	0
63.5524	-3.65702	-0.784977	0
63.5556	-3.65964	-0.784907	0
63.5592	-3.66212	-0.784914	0
63.5638	-3.66199	-0.784996	0
63.5686	-3.66189	-0.784939	0
63.5728	-3.6618	-0.784945	0
63.5792	-3.6664	-0.784945	0
63.583	-3.66346	-0.784863	0
63.5926	-3.66854	-0.784907	0
63.5962	-3.671	-0.785022	0
63.6012	-3.66634	-0.785015	0
63.6072	-3.67121	-0.784965	0
63.6208	-3.67426	-0.784977	0
63.6238	-3.67403	-0.784971	0
63.6324	-3.67197	-0.784939	0
63.6382	-3.6769	-0.784996	0
63.6474	-3.68192	-0.784984	0
63.653	-3.68215	-0.784977	0
63.662	-3.68247	-0.784933	0
63.67	-3.68491	-0.784977	0
63.6722	-3.68856	-0.784945	0
63.6778	-3.69125	-0.784952	0
63.6862	-3.69207	-0.784971	0
63.6934	-3.6973	-0.784945	0
63.6984	-3.70053	-0.784945	0
63.7044	-3.69791	-0.784996	0
63.7082	-3.69812	-0.784939	0
63.7164	-3.70355	-0.785015	0
63.72	-3.70408	-0.784984	0
63.7228	-3.70355	-0.784977	0
63.7284	-3.70393	-0.78492	0
63.7338	-3.70393	-0.785041	0
63.7384	-3.70851	-0.784958	0
63.7416	-3.70891	-0.784971	0
63.7426	-3.70687	-0.784958	0
63.7468	-3.70704	-0.78499	0
63.753	-3.71135	-0.784875	0
63.7578	-3.71382	-0.784945	0
63.763	-3.71905	-0.784952	0
63.773	-3.72096	-0.784939	0
63.7764	-3.718	-0.784984	0
63.7792	-3.71557	-0.78499	0
63.7828	-3.71987	-0.784977	0
63.7896	-3.71722	-0.784882	0
63.798	-3.71981	-0.78499	0
63.802	-3.71807	-0.784952	0
63.805	-3.72283	-0.784958	0
63.8094	-3.72638	-0.784958	0
63.8148	-3.72705	-0.784977	0
63.8236	-3.73186	-0.784952	0
63.827	-3.7347	-0.784984	0
63.8316	-3.7356	-0.784971	0
63.8428	-3.73527	-0.784926	0
63.8474	-3.73995	-0.784933	0
63.8534	-3.73976	-0.78499	0
63.8574	-3.7444	-0.784977	0
63.8642	-3.74167	-0.784914	0
63.8684	-3.73974	-0.78499	0
63.8706	-3.74427	-0.784926	0
63.8806	-3.74234	-0.78499	0
63.8868	-3.74165	-0.78506	0
63.892	-3.74182	-0.78499	0
63.8966	-3.74442	-0.784952	0
63.9022	-3.74457	-0.784965	0
63.9058	-3.74591	-0.784977	0
63.9104	-3.74808	-0.785003	0
63.9158	-3.74795	-0.784952	0
63.9192	-3.74518	-0.785015	0
63.9226	-3.74633	-0.784926	0
63.9248	-3.74881	-0.784977	0
63.9282	-3.74839	-0.784901	0
63.9326	-3.74845	-0.784984	0
63.9382	-3.75009	-0.78492	0
63.9414	-3.75003	-0.784952	0
63.943	-3.74944	-0.784939	0
63.9478	-3.75415	-0.784933	0
63.9532	-3.75436	-0.784965	0
63.9602	-3.75958	-0.785047	0
63.9668	-3.75711	-0.784895	0
63.9744	-3.75469	-0.785022	0
63.9792	-3.75499	-0.784958	0
63.987	-3.76011	-0.784977	0
63.9908	-3.76299	-0.784952	0
63.9936	-3.76095	-0.784977	0
64.0008	-3.76337	-0.784939	0
64.0054	-3.76347	-0.78492	0
64.007	-3.76904	-0.784907	0
64.0096	-3.76885	-0.784952	0
64.0124	-3.76359	-0.784984	0
64.015	-3.7624	-0.785003	0
64.0218	-3.76456	-0.784926	0
64.029	-3.76967	-0.784977	0
64.0314	-3.76427	-0.784984	0
64.0348	-3.76616	-0.784965	0
64.0384	-3.77132	-0.784952	0
64.0434	-3.77368	-0.784952	0
64.0506	-3.77594	-0.784952	0
64.0562	-3.77893	-0.784984	0
64.0622	-3.77928	-0.785015	0
64.0678	-3.77704	-0.785015	0
64.0704	-3.77987	-0.784933	0
64.0732	-3.77998	-0.785015	0
64.0758	-3.78044	-0.784965	0
64.0804	-3.78306	-0.784971	0
64.088	-3.78558	-0.784952	0
64.0926	-3.78334	-0.784933	0
64.0978	-3.78882	-0.785003	0
64.104	-3.78613	-0.784952	0
64.1096	-3.786	-0.784958	0
64.1132	-3.78905	-0.784971	0
64.1202	-3.79222	-0.784939	0
64.125	-3.7926	-0.784945	0
64.127	-3.79478	-0.784965	0
64.1294	-3.7944	-0.785022	0
64.135	-3.79403	-0.784939	0
64.1408	-3.79965	-0.784926	0
64.145	-3.79947	-0.78492	0
64.1492	-3.79999	-0.784926	0
64.1528	-3.8022	-0.784958	0
64.156	-3.79753	-0.784939	0
64.1608	-3.80014	-0.784945	0
64.1656	-3.79566	-0.784939	0
64.1714	-3.80001	-0.784926	0
64.1742	-3.80482	-0.784926	0
64.1776	-3.80255	-0.784965	0
64.1814	-3.80505	-0.784958	0
64.1832	-3.80696	-0.784984	0
64.1854	-3.80658	-0.784984	0
64.1896	-3.80633	-0.784952	0
64.1914	-3.80707	-0.785047	0
64.1962	-3.8045	-0.784939	0
64.1994	-3.80448	-0.784977	0
64.2022	-3.80702	-0.784882	0
64.2058	-3.80961	-0.785003	0
64.2116	-3.8073	-0.784882	0
64.2158	-3.80768	-0.784952	0
64.2186	-3.80997	-0.784977	0
64.2234	-3.80732	-0.784965	0
64.2274	-3.80749	-0.784965	0
64.2308	-3.81249	-0.784907	0
64.2382	-3.81486	-0.784965	0
64.2456	-3.81763	-0.784939	0
64.2482	-3.81759	-0.784926	0
64.2526	-3.81799	-0.784895	0
64.2568	-3.8208	-0.784901	0
64.2662	-3.82339	-0.784996	0
64.2714	-3.82393	-0.785009	0
64.2778	-3.8238	-0.78492	0
64.2864	-3.82444	-0.784952	0
64.2906	-3.82427	-0.78499	0
64.299	-3.82935	-0.784965	0
64.3028	-3.83151	-0.784926	0
64.3056	-3.83433	-0.784984	0
64.311	-3.838	-0.78492	0
64.3138	-3.84	-0.784933	0
64.317	-3.83718	-0.784977	0
64.3212	-3.83888	-0.78492	0
64.3282	-3.83949	-0.784914	0
64.3336	-3.84201	-0.784939	0
64.3352	-3.84531	-0.784945	0
64.3402	-3.8476	-0.784965	0
64.3444	-3.8443	-0.78499	0
64.3502	-3.84649	-0.784952	0
64.358	-3.84672	-0.785003	0
64.3682	-3.84722	-0.784977	0
64.3728	-3.85045	-0.784901	0
64.375	-3.85505	-0.784965	0
64.3836	-3.85192	-0.784926	0
64.3864	-3.85524	-0.785015	0
64.3954	-3.85319	-0.784926	0
64.3978	-3.85421	-0.784996	0
64.4036	-3.8565	-0.784914	0
64.4054	-3.859	-0.785009	0
64.4096	-3.85581	-0.784952	0
64.4128	-3.8586	-0.784907	0
64.4168	-3.86085	-0.784907	0
64.42	-3.8607	-0.785015	0
64.423	-3.86087	-0.784945	0
64.4276	-3.8603	-0.784965	0
64.4324	-3.8631	-0.784939	0
64.4374	-3.86138	-0.784939	0
64.4468	-3.86075	-0.785003	0
64.45	-3.86299	-0.784952	0
64.456	-3.86287	-0.785015	0
64.4604	-3.86073	-0.785003	0
64.4628	-3.85766	-0.784977	0
64.4692	-3.86276	-0.784952	0
64.4748	-3.86715	-0.784907	0
64.479	-3.86495	-0.785054	0
64.4836	-3.86444	-0.784971	0
64.4882	-3.86868	-0.784939	0
64.4964	-3.87454	-0.784888	0
64.5028	-3.87509	-0.78506	0
64.5114	-3.87814	-0.784895	0
64.5166	-3.87582	-0.784965	0
64.5222	-3.87902	-0.784971	0
64.5272	-3.88422	-0.784939	0
64.5324	-3.89006	-0.784996	0
64.5356	-3.88769	-0.784882	0
64.5396	-3.88471	-0.78492	0
64.5442	-3.88973	-0.78492	0
64.5504	-3.88504	-0.784958	0
64.5554	-3.88695	-0.784914	0
64.56	-3.88975	-0.784895	0
64.5678	-3.88389	-0.784952	0
64.5724	-3.88727	-0.784958	0
64.579	-3.89263	-0.784958	0
64.5838	-3.89309	-0.784933	0
64.5854	-3.88809	-0.784958	0
64.5878	-3.8871	-0.784965	0
64.596	-3.88154	-0.785003	0
64.6028	-3.88401	-0.784965	0
64.6086	-3.88788	-0.784971	0
64.615	-3.88983	-0.784971	0
64.6202	-3.89178	-0.784984	0
64.6244	-3.89218	-0.784933	0
64.6276	-3.89258	-0.785009	0
64.6308	-3.892	-0.784958	0
64.6336	-3.89395	-0.784984	0
64.6358	-3.89403	-0.784933	0
64.6396	-3.89653	-0.785028	0
64.644	-3.90145	-0.784945	0
64.6494	-3.90199	-0.784984	0
64.654	-3.90483	-0.784977	0
64.6576	-3.90548	-0.784939	0
64.6592	-3.90756	-0.784971	0
64.6652	-3.90506	-0.784996	0
64.67	-3.90722	-0.78499	0
64.6726	-3.91316	-0.784984	0
64.6774	-3.91071	-0.784965	0
64.6794	-3.91325	-0.784901	0
64.683	-3.91344	-0.785009	0
64.6862	-3.91862	-0.78492	0
64.6884	-3.91818	-0.784895	0
64.6914	-3.91848	-0.784965	0
64.6954	-3.92003	-0.784971	0
64.6984	-3.91625	-0.785009	0
64.7046	-3.91365	-0.785035	0
64.708	-3.91911	-0.784958	0
64.7122	-3.9189	-0.78492	0
64.7152	-3.91802	-0.784888	0
64.7236	-3.92154	-0.784965	0
64.7292	-3.92079	-0.784933	0
64.7322	-3.92114	-0.784939	0
64.7354	-3.92285	-0.784939	0
64.7396	-3.92282	-0.785041	0
64.7448	-3.92646	-0.784958	0
64.7532	-3.9269	-0.78499	0
64.7572	-3.92423	-0.784958	0
64.7608	-3.924	-0.784971	0
64.7682	-3.92429	-0.784952	0
64.7736	-3.92625	-0.784984	0
64.777	-3.92663	-0.78492	0
64.7868	-3.92591	-0.784965	0
64.789	-3.92881	-0.784952	0
64.792	-3.92919	-0.784926	0
64.795	-3.92862	-0.784996	0
64.7988	-3.92541	-0.784977	0
64.8016	-3.92444	-0.784977	0
64.8082	-3.92436	-0.784958	0
64.8118	-3.92385	-0.785066	0
64.814	-3.92795	-0.784926	0
64.8184	-3.93421	-0.784984	0
64.8224	-3.93408	-0.784965	0
64.829	-3.93404	-0.78492	0
64.8324	-3.93454	-0.784939	0
64.8352	-3.93731	-0.784971	0
64.839	-3.93931	-0.784945	0
64.843	-3.94034	-0.784907	0
64.8468	-3.94381	-0.784971	0
64.8498	-3.94162	-0.784977	0
64.8554	-3.94141	-0.784907	0
64.8594	-3.94107	-0.784984	0
64.8646	-3.94469	-0.784984	0
64.8692	-3.94462	-0.784971	0
64.8726	-3.94513	-0.785003	0
64.879	-3.94788	-0.785028	0
64.8854	-3.94803	-0.784945	0
64.8886	-3.94792	-0.785009	0
64.8936	-3.94819	-0.78492	0
64.8976	-3.94551	-0.784958	0
64.9032	-3.95155	-0.784888	0
64.9058	-3.95223	-0.784933	0
64.9098	-3.95599	-0.784945	0
64.9112	-3.95475	-0.784977	0
64.9126	-3.95951	-0.785079	0
64.9176	-3.95727	-0.784939	0
64.9212	-3.96092	-0.785003	0
64.9252	-3.95735	-0.784977	0
64.9278	-3.95878	-0.78492	0
64.9342	-3.96371	-0.784926	0
64.9374	-3.96174	-0.785003	0
64.9394	-3.96249	-0.784914	0
64.943	-3.96693	-0.784984	0
64.9488	-3.96785	-0.78499	0
64.9542	-3.96375	-0.784952	0
64.9578	-3.96331	-0.784926	0
64.9606	-3.96602	-0.784984	0
64.963	-3.96899	-0.784996	0
64.968	-3.96827	-0.785003	0
64.9724	-3.9663	-0.784984	0
64.9768	-3.96399	-0.784945	0
64.9812	-3.9673	-0.784971	0
64.9862	-3.9664	-0.784933	0
64.9892	-3.9659	-0.784971	0
64.9938	-3.96674	-0.784939	0
64.997	-3.9639	-0.784977	0
65.003	-3.96651	-0.784996	0
65.0078	-3.9663	-0.784977	0
65.0178	-3.96884	-0.78499	0
65.0214	-3.97184	-0.784952	0
65.0296	-3.96884	-0.784977	0
65.031	-3.97318	-0.784984	0
65.038	-3.97644	-0.784933	0
65.0474	-3.97629	-0.784939	0
65.0524	-3.97428	-0.785015	0
65.058	-3.97403	-0.784958	0
65.0618	-3.97892	-0.784996	0
65.0646	-3.98158	-0.784926	0
65.0668	-3.98182	-0.784977	0
65.0696	-3.98402	-0.784914	0
65.0728	-3.98303	-0.784926	0
65.076	-3.986	-0.784971	0
65.08	-3.98356	-0.784958	0
65.0824	-3.98486	-0.784996	0
65.0894	-3.98213	-0.784952	0
65.0934	-3.98539	-0.78499	0
65.0964	-3.98541	-0.784977	0
65.1012	-3.98515	-0.785041	0
65.1044	-3.98557	-0.784939	0
65.1076	-3.98635	-0.784945	0
65.1096	-3.98854	-0.78499	0
65.1136	-3.99228	-0.784901	0
65.1194	-3.99561	-0.784958	0
65.1224	-3.99526	-0.785015	0
65.1248	-3.9916	-0.785028	0
65.1282	-3.99146	-0.784933	0
65.138	-3.99127	-0.785022	0
65.1438	-3.98908	-0.785047	0
65.1478	-3.99461	-0.784895	0
65.152	-3.99671	-0.784958	0
65.1562	-3.99368	-0.784958	0
65.1606	-3.99482	-0.784965	0
65.1622	-3.99935	-0.784952	0
65.1648	-3.99895	-0.784952	0
65.169	-3.99643	-0.784996	0
65.1712	-3.9979	-0.784952	0
65.1754	-3.99881	-0.78492	0
65.1798	-4.00131	-0.784945	0
65.1818	-4.00151	-0.78499	0
65.1834	-4.00028	-0.784984	0
65.1874	-3.99803	-0.784945	0
65.189	-4.00259	-0.784971	0
65.1942	-4.0033	-0.785009	0
65.198	-4.00372	-0.784952	0
65.2032	-4.00612	-0.785009	0
65.2086	-4.00412	-0.784926	0
65.2124	-4.00605	-0.784984	0
65.2176	-4.00691	-0.785022	0
65.2212	-4.01269	-0.784965	0
65.2238	-4.01319	-0.784933	0
65.2278	-4.01399	-0.784958	0
65.2324	-4.01743	-0.784996	0
65.2344	-4.01124	-0.785015	0
65.241	-4.0126	-0.784984	0
65.244	-4.01296	-0.784965	0
65.2464	-4.01048	-0.784965	0
65.2508	-4.01126	-0.784977	0
65.2546	-4.01403	-0.785009	0
65.2596	-4.01596	-0.784952	0
65.2642	-4.01836	-0.785022	0
65.2666	-4.02501	-0.784939	0
65.2686	-4.02837	-0.784971	0
65.27	-4.02327	-0.784958	0
65.2718	-4.02848	-0.784952	0
65.2754	-4.02459	-0.785047	0
65.279	-4.02369	-0.784939	0
65.2836	-4.02079	-0.784971	0
65.2872	-4.02348	-0.784901	0
65.291	-4.02195	-0.78492	0
65.293	-4.02539	-0.78499	0
65.2964	-4.02678	-0.784971	0
65.2984	-4.02214	-0.784977	0
65.3014	-4.02829	-0.784939	0
65.3054	-4.02606	-0.784971	0
65.3096	-4.01916	-0.784996	0
65.313	-4.02468	-0.784952	0
65.3178	-4.02724	-0.784965	0
65.3202	-4.02798	-0.78499	0
65.323	-4.0242	-0.78499	0
65.328	-4.02693	-0.784977	0
65.3314	-4.02533	-0.785041	0
65.3364	-4.02781	-0.784965	0
65.3378	-4.02703	-0.784933	0
65.3408	-4.02947	-0.784952	0
65.3456	-4.02606	-0.785003	0
65.3486	-4.02936	-0.784901	0
65.3514	-4.02659	-0.78492	0
65.3544	-4.03272	-0.784933	0
65.3588	-4.03199	-0.784952	0
65.3606	-4.0263	-0.784971	0
65.3626	-4.02585	-0.784977	0
65.3654	-4.02571	-0.784933	0
65.37	-4.03096	-0.784977	0
65.3712	-4.02837	-0.785009	0
65.3748	-4.03331	-0.784939	0
65.3796	-4.03638	-0.785035	0
65.382	-4.04123	-0.784958	0
65.3872	-4.042	-0.784958	0
65.3898	-4.04217	-0.784965	0
65.3918	-4.04597	-0.784958	0
65.3944	-4.04944	-0.784945	0
65.397	-4.05036	-0.784888	0
65.3996	-4.05627	-0.784971	0
65.4038	-4.05215	-0.784952	0
65.4064	-4.04957	-0.784933	0
65.4084	-4.05213	-0.784977	0
65.411	-4.05116	-0.784971	0
65.414	-4.04715	-0.785022	0
65.4168	-4.04339	-0.784945	0
65.421	-4.04656	-0.784926	0
65.4238	-4.04068	-0.784933	0
65.428	-4.04392	-0.784971	0
65.4306	-4.04362	-0.784945	0
65.4364	-4.04608	-0.784965	0
65.4396	-4.04369	-0.784945	0
65.4444	-4.04356	-0.784907	0
65.4474	-4.04318	-0.784933	0
65.4518	-4.04858	-0.784971	0
65.4542	-4.04906	-0.784971	0
65.4572	-4.04505	-0.784958	0
65.4604	-4.04723	-0.784939	0
65.4646	-4.05259	-0.784965	0
65.4694	-4.04969	-0.784971	0
65.4718	-4.05219	-0.784952	0
65.477	-4.05284	-0.784914	0
65.4818	-4.04999	-0.784965	0
65.483	-4.04329	-0.78499	0
65.4886	-4.0441	-0.784926	0
65.4918	-4.04341	-0.784984	0
65.494	-4.04398	-0.784965	0
65.4996	-4.0462	-0.784914	0
65.5016	-4.05087	-0.784907	0
65.504	-4.05112	-0.784984	0
65.5052	-4.05114	-0.784977	0
65.5096	-4.05215	-0.784926	0
65.5128	-4.05473	-0.784965	0
65.5168	-4.05841	-0.784965	0
65.5192	-4.05841	-0.785015	0
65.5226	-4.05948	-0.78499	0
65.5262	-4.05975	-0.784958	0
65.5288	-4.06401	-0.785003	0
65.5346	-4.06336	-0.784882	0
65.537	-4.05944	-0.785028	0
65.5396	-4.06221	-0.78485	0
65.5442	-4.05731	-0.784977	0
65.547	-4.05631	-0.78492	0
65.5494	-4.05843	-0.784914	0
65.5552	-4.06496	-0.784996	0
65.5568	-4.05824	-0.784971	0
65.5608	-4.0604	-0.784996	0
65.5628	-4.06592	-0.784939	0
65.5654	-4.06836	-0.784971	0
65.5684	-4.07155	-0.784996	0
65.5722	-4.07285	-0.785035	0
65.5756	-4.07271	-0.784971	0
65.5788	-4.07911	-0.784996	0
65.5818	-4.08205	-0.784939	0
65.583	-4.08783	-0.784939	0
65.5848	-4.09092	-0.785041	0
65.588	-4.09346	-0.784895	0
65.589	-4.09942	-0.784945	0
65.5926	-4.09974	-0.785022	0
65.5954	-4.10253	-0.784958	0
65.5974	-4.10261	-0.784939	0
65.5994	-4.09793	-0.784939	0
65.6012	-4.10444	-0.784926	0
65.603	-4.10173	-0.784933	0
65.6042	-4.10912	-0.784984	0
65.6058	-4.11521	-0.784914	0
65.6076	-4.12112	-0.784869	0
65.611	-4.11773	-0.784926	0
65.6124	-4.11582	-0.784901	0
65.6158	-4.11902	-0.784901	0
65.618	-4.11851	-0.785003	0
65.6212	-4.11393	-0.784895	0
65.6228	-4.11691	-0.784926	0
65.6256	-4.11937	-0.784888	0
65.6266	-4.12347	-0.78492	0
65.628	-4.13384	-0.784933	0
65.6294	-4.1417	-0.784888	0
65.6306	-4.14119	-0.784888	0
65.6322	-4.13603	-0.78492	0
65.6342	-4.13107	-0.785124	0
65.635	-4.15161	-0.784799	0
65.636	-4.1657	-0.784799	0
65.637	-4.17238	-0.78478	0
65.6378	-4.17286	-0.784786	0
65.639	-4.18813	-0.784755	0
65.6406	-4.18361	-0.784805	0
65.6414	-4.18752	-0.784755	0
65.6422	-4.20504	-0.784621	0
65.643	-4.23912	-0.784163	0
65.6438	-4.28511	-0.782775	0
65.6446	-4.43682	-0.772224	0
65.6454	-4.60678	-0.773408	0
65.6462	-4.68812	-0.779721	0
65.647	-4.72978	-0.781706	0
65.6478	-4.7532	-0.782794	0
65.6486	-4.76616	-0.783475	0
65.6496	-4.77506	-0.783972	0
65.6504	-3.53149	-0.785499	0
65.6526	-3.5266	-0.784965	0
65.6548	-3.53141	-0.784945	0
65.6578	-3.53624	-0.78492	0
65.6614	-3.54058	-0.784958	0
65.667	-3.54516	-0.784965	0
65.675	-3.54936	-0.784996	0
65.688	-3.55373	-0.784971	0
65.712	-3.55789	-0.784875	0
65.8032	-3.55793	-0.784996	0
65.835	-3.55379	-0.784977	0
65.8632	-3.54955	-0.785015	0
65.895	-3.54544	-0.784958	0
65.9364	-3.54126	-0.784977	0
66.006	-3.53708	-0.784952	0
66.2406	-3.533	-0.785015	0
67.0502	-3.53714	-0.784952	0
68.1054	-3.54123	-0.785022	0
83.3738	-3.5447	-0.785022	0
121.228	-3.54879	-0.785047	0
158.527	-3.55249	-0.784996	0
198.527	-3.55554	-0.78499	0
238.456	-3.55845	-0.784926	0
240.052	-3.55873	-0.784984	0