File: EXPERIMENTAL/DATA/Electrochemical-cycling/S-series/2024-06-19_S07_Icell_t1800_C0003_J01_02_MB_C09.txt
time/s	Ewe/V	I/mA	error	Ece/V
60.053	2.8316	-0.025008	0	-0.00158786
60.1432	0.00837153	-5.1704	0	0.000100824
60.1438	0.00835245	-5.10104	0	-5.1858e-05
60.1444	0.00837153	-5.03175	0	-7.09433e-05
60.145	0.00835245	-4.96684	0	-5.1858e-05
60.1456	0.00839062	-4.90263	0	-1.36875e-05
60.1462	0.00835245	-4.84007	0	6.26537e-05
60.1468	0.00831427	-4.77942	0	5.39784e-06
60.1474	0.00837153	-4.72043	0	2.44831e-05
60.148	0.00835245	-4.66289	0	-1.36875e-05
60.1486	0.00837153	-4.60663	0	0.00011991
60.1492	0.00846697	-4.55189	0	0.00011991
60.1498	0.00837153	-4.49919	0	0.000100824
60.1504	0.00846697	-4.44769	0	0.000138995
60.151	0.0084288	-4.3969	0	4.35684e-05
60.1518	0.00840971	-4.33078	0	2.44831e-05
60.1526	0.00829519	-4.26784	0	2.44831e-05
60.1534	0.00840971	-4.20707	0	-1.36875e-05
60.1542	0.00831427	-4.14813	0	-3.27727e-05
60.155	0.00831427	-4.08964	0	-1.36875e-05
60.1558	0.00848606	-4.03395	0	-1.36875e-05
60.1566	0.00835245	-3.98061	0	8.1739e-05
60.1574	0.00833336	-3.92823	0	-5.1858e-05
60.1582	0.0084288	-3.87686	0	-1.36875e-05
60.1592	0.00839062	-3.81526	0	5.39784e-06
60.1602	0.00840971	-3.75582	0	-0.000109114
60.1612	0.00833336	-3.69924	0	4.35684e-05
60.1622	0.00829519	-3.64418	0	-3.27727e-05
60.1632	0.00837153	-3.59097	0	-9.00286e-05
60.1642	0.0084288	-3.54005	0	0.000100824
60.1652	0.0082761	-3.48938	0	4.35684e-05
60.1664	0.00840971	-3.43172	0	6.26537e-05
60.1676	0.00837153	-3.37679	0	2.44831e-05
60.1688	0.00835245	-3.32351	0	0.000138995
60.17	0.00848606	-3.27265	0	4.35684e-05
60.1714	0.00840971	-3.21506	0	0.000100824
60.1728	0.00837153	-3.16038	0	6.26537e-05
60.1742	0.0084288	-3.10781	0	-1.36875e-05
60.1756	0.00835245	-3.05752	0	-5.1858e-05
60.1772	0.00848606	-3.00272	0	-3.27727e-05
60.1788	0.00837153	-2.94963	0	-7.09433e-05
60.1806	0.00837153	-2.89305	0	0.000100824
60.1824	0.00831427	-2.8401	0	6.26537e-05
60.1842	0.00837153	-2.78917	0	-0.000109114
60.1862	0.00833336	-2.73406	0	4.35684e-05
60.1882	0.00840971	-2.68301	0	8.1739e-05
60.1904	0.0084288	-2.62859	0	0.000177165
60.1926	0.0084288	-2.5776	0	0.00011991
60.195	0.0084288	-2.52502	0	2.44831e-05
60.1974	0.00848606	-2.47448	0	6.26537e-05
60.2	0.0084288	-2.4221	0	6.26537e-05
60.2028	0.00839062	-2.36959	0	6.26537e-05
60.2056	0.00829519	-2.3193	0	-1.36875e-05
60.2086	0.00839062	-2.26799	0	4.35684e-05
60.2118	0.00833336	-2.21726	0	-5.1858e-05
60.215	0.00848606	-2.16723	0	0.000100824
60.2186	0.0082761	-2.11561	0	8.1739e-05
60.2224	0.00846697	-2.06335	0	-0.000128199
60.2264	0.0084288	-2.01128	0	4.35684e-05
60.2306	0.00844788	-1.96055	0	4.35684e-05
60.235	0.00840971	-1.90925	0	-3.27727e-05
60.2396	0.00852423	-1.85845	0	-9.00286e-05
60.2444	0.00848606	-1.8081	0	0.000138995
60.2498	0.00825701	-1.75692	0	-5.1858e-05
60.2552	0.00844788	-1.70676	0	5.39784e-06
60.261	0.00840971	-1.65641	0	-3.27727e-05
60.2672	0.00829519	-1.60479	0	6.26537e-05
60.274	0.00837153	-1.55361	0	-1.36875e-05
60.281	0.00835245	-1.50301	0	5.39784e-06
60.2884	0.00831427	-1.45247	0	6.26537e-05
60.2964	0.00831427	-1.40174	0	5.39784e-06
60.3048	0.0084288	-1.35138	0	-0.000109114
60.3142	0.00829519	-1.29976	0	8.1739e-05
60.3242	0.00835245	-1.24935	0	2.44831e-05
60.3348	0.00837153	-1.19868	0	2.44831e-05
60.3462	0.00835245	-1.14738	0	-3.27727e-05
60.3586	0.00825701	-1.09728	0	0.000100824
60.372	0.00837153	-1.04706	0	6.26537e-05
60.3864	0.00839062	-0.996959	0	-1.36875e-05
60.402	0.00835245	-0.946672	0	5.39784e-06
60.42	0.00844788	-0.895877	0	8.1739e-05
60.4392	0.00846697	-0.84578	0	-3.27727e-05
60.4608	0.00839062	-0.795748	0	0.000100824
60.4852	0.00835245	-0.745016	0	6.26537e-05
60.5126	0.0084288	-0.694856	0	-3.27727e-05
60.5438	0.0084288	-0.643997	0	2.44831e-05
60.5806	0.00829519	-0.59371	0	5.39784e-06
60.623	0.00833336	-0.543041	0	-3.27727e-05
60.6736	0.00844788	-0.492818	0	4.35684e-05
60.7338	0.00839062	-0.442785	0	2.44831e-05
60.8172	0.00837153	-0.392716	0	8.1739e-05
60.9142	0.00848606	-0.342684	0	4.35684e-05
61.042	0.00840971	-0.292492	0	4.35684e-05
61.2196	0.00837153	-0.242454	0	6.26537e-05
61.4818	0.00852423	-0.192371	0	0.000100824
61.9144	0.0084288	-0.142288	0	0.00011991
62.7814	0.00844788	-0.0921987	0	0.00011991
65.6746	0.00844788	-0.0421855	0	6.26537e-05
75.6746	0.0084288	-0.0141035	0	4.35684e-05
85.6746	0.00840971	-0.00816293	0	8.1739e-05
95.6746	0.00844788	-0.00570194	0	0.00011991
105.675	0.00835245	-0.00434914	0	-3.27727e-05
115.675	0.00848606	-0.00355083	0	6.26537e-05
125.675	0.0084288	-0.00298174	0	8.1739e-05
135.675	0.00850514	-0.00258097	0	4.35684e-05
145.675	0.00846697	-0.00230581	0	5.39784e-06
155.675	0.0084288	-0.00204854	0	0.000100824
165.675	0.0084288	-0.00189384	0	8.1739e-05
175.675	0.00850514	-0.00172858	0	2.44831e-05
185.675	0.00848606	-0.00162632	0	2.44831e-05
195.675	0.00840971	-0.00152151	0	8.1739e-05
205.675	0.00835245	-0.00142644	0	4.35684e-05
215.675	0.00833336	-0.00134467	0	-9.00286e-05
225.675	0.00844788	-0.00127645	0	0.000100824
235.675	0.0084288	-0.00121517	0	0.000138995
245.675	0.0084288	-0.00116229	0	0.000215336
255.675	0.00844788	-0.00112334	0	4.35684e-05
265.675	0.0084288	-0.00107364	0	-3.27727e-05
275.675	0.00848606	-0.00104005	0	4.35684e-05
285.675	0.0084288	-0.0010172	0	8.1739e-05
295.675	0.00846697	-0.000961837	0	5.39784e-06
305.675	0.00833336	-0.000940329	0	-7.09433e-05
315.675	0.0084288	-0.000906284	0	4.35684e-05
325.675	0.00854332	-0.000885666	0	8.1739e-05
335.675	0.00831427	-0.000865239	0	0.000138995
345.675	0.00846697	-0.000846785	0	2.44831e-05
355.675	0.00840971	-0.000819295	0	6.26537e-05
365.675	0.00848606	-0.000823876	0	8.1739e-05
375.675	0.00839062	-0.000798422	0	2.44831e-05
385.675	0.00846697	-0.000782132	0	2.44831e-05
395.675	0.00844788	-0.000767814	0	8.1739e-05
405.675	0.0084288	-0.000757569	0	2.44831e-05
415.675	0.00839062	-0.000737014	0	4.35684e-05
425.675	0.00837153	-0.000736633	0	8.1739e-05
435.675	0.0084288	-0.000717478	0	-5.1858e-05
445.675	0.00839062	-0.000699979	0	2.44831e-05
455.675	0.00846697	-0.000684324	0	4.35684e-05
465.675	0.00839062	-0.000646589	0	6.26537e-05
475.675	0.00839062	-0.000674715	0	-1.36875e-05
485.675	0.00848606	-0.000656261	0	-7.09433e-05
495.675	0.0085624	-0.000666252	0	-1.36875e-05
505.675	0.00840971	-0.000652443	0	6.26537e-05
515.675	0.00840971	-0.00062648	0	6.26537e-05
525.675	0.00835245	-0.00062438	0	6.26537e-05
535.675	0.00844788	-0.000608853	0	6.26537e-05
545.675	0.00840971	-0.000636789	0	4.35684e-05
555.675	0.00846697	-0.000592308	0	-1.36875e-05
565.675	0.00846697	-0.000598035	0	8.1739e-05
575.675	0.00846697	-0.000573536	0	5.39784e-06
585.675	0.00837153	-0.000583908	0	6.26537e-05
595.675	0.0084288	-0.000554763	0	6.26537e-05
605.675	0.00850514	-0.000553427	0	5.39784e-06
615.675	0.0084288	-0.000575063	0	0.000100824
625.675	0.00844788	-0.000536882	0	0.00015808
635.675	0.00844788	-0.000541336	0	8.1739e-05
645.675	0.00833336	-0.000555209	0	5.39784e-06
655.675	0.00848606	-0.000543182	0	2.44831e-05
665.675	0.00846697	-0.000551709	0	2.44831e-05
675.675	0.00844788	-0.000524537	0	6.26537e-05
685.675	0.00840971	-0.00049641	0	6.26537e-05
695.675	0.00839062	-0.000515818	0	4.35684e-05
705.675	0.0084288	-0.000512	0	0.000100824
715.675	0.0084288	-0.000520655	0	-5.1858e-05
725.675	0.0084288	-0.000517982	0	0.000138995
735.675	0.00846697	-0.000476365	0	4.35684e-05
745.675	0.00850514	-0.000518555	0	8.1739e-05
755.675	0.00844788	-0.000488583	0	0.000177165
765.675	0.00848606	-0.000495328	0	-1.36875e-05
775.675	0.00846697	-0.000498128	0	6.26537e-05
785.675	0.00840971	-0.000490237	0	4.35684e-05
795.675	0.0084288	-0.000489601	0	6.26537e-05
805.675	0.00844788	-0.000886175	0	-5.1858e-05
815.675	0.00833336	-0.000482792	0	-1.36875e-05
825.675	0.00839062	-0.00048381	0	0.000138995
835.675	0.00846697	-0.000459883	0	4.35684e-05
845.675	0.00846697	-0.000473056	0	5.39784e-06
855.675	0.0084288	-0.000468983	0	2.44831e-05
865.675	0.00837153	-0.000454029	0	-1.36875e-05
875.675	0.0084288	-0.000473883	0	0.000100824
885.675	0.00850514	-0.000434429	0	-3.27727e-05
895.675	0.00846697	-0.000448938	0	-5.1858e-05
905.675	0.00839062	-0.000436656	0	8.1739e-05
915.675	0.00837153	-0.000437738	0	2.44831e-05
925.675	0.00844788	-0.000433029	0	0.000100824
935.675	0.00844788	-0.000429147	0	4.35684e-05
945.675	0.00839062	-0.000448874	0	4.35684e-05
955.675	0.00846697	-0.000428511	0	5.39784e-06
965.675	0.00846697	-0.000423993	0	-9.00286e-05
975.675	0.00844788	-0.000421257	0	6.26537e-05
985.675	0.00840971	-0.000430038	0	5.39784e-06
995.675	0.0084288	-0.000406748	0	6.26537e-05
1005.67	0.00846697	-0.000424629	0	4.35684e-05
1015.67	0.0084288	-0.000409166	0	-1.36875e-05
1025.67	0.00835245	-0.000413239	0	0.00011991
1035.67	0.00844788	-0.000412984	0	8.1739e-05
1045.67	0.00839062	-0.000421384	0	0.000177165
1055.67	0.00846697	-0.000412539	0	0.00011991
1065.67	0.00844788	-0.000407257	0	-1.36875e-05
1075.67	0.00840971	-0.000409102	0	6.26537e-05
1085.67	0.00837153	-0.000399112	0	8.1739e-05
1095.67	0.0084288	-0.000408402	0	-9.00286e-05
1105.67	0.00844788	-0.000383585	0	6.26537e-05
1115.67	0.00844788	-0.000377157	0	0.000100824
1125.67	0.00835245	-0.000388294	0	8.1739e-05
1135.67	0.0084288	-0.000393957	0	0.000138995
1145.67	0.00835245	-0.000382694	0	4.35684e-05
1155.67	0.00837153	-0.000384412	0	8.1739e-05
1165.67	0.00844788	-0.000379576	0	6.26537e-05
1175.67	0.00850514	-0.000356158	0	6.26537e-05
1185.67	0.00844788	-0.000385685	0	4.35684e-05
1195.67	0.00848606	-0.000361249	0	4.35684e-05
1205.67	0.0084288	-0.000377985	0	-5.1858e-05
1215.67	0.00844788	-0.000375694	0	-3.27727e-05
1225.67	0.00846697	-0.000374167	0	2.44831e-05
1235.67	0.0084288	-0.000359721	0	6.26537e-05
1245.67	0.00846697	-0.000355712	0	5.39784e-06
1255.67	0.00846697	-0.000384221	0	-9.00286e-05
1265.67	0.00840971	-0.000358449	0	5.39784e-06
1275.67	0.00854332	-0.000353803	0	0.00011991
1285.67	0.00850514	-0.000353103	0	6.26537e-05
1295.67	0.00835245	-0.000369267	0	-5.1858e-05
1305.67	0.00840971	-0.000364494	0	0.000100824
1315.67	0.0084288	-0.000511873	0	6.26537e-05
1325.67	0.0084288	-0.000341585	0	2.44831e-05
1335.67	0.0084288	-0.000340249	0	6.26537e-05
1345.67	0.00831427	-0.000344958	0	6.26537e-05
1355.67	0.00844788	-0.000349158	0	-1.36875e-05
1365.67	0.00840971	-0.000360231	0	0.000100824
1375.67	0.00844788	-0.000340058	0	2.44831e-05
1385.67	0.00844788	-0.000361249	0	4.35684e-05
1395.67	0.0084288	-0.000360421	0	0.000138995
1405.67	0.0084288	-0.000342031	0	2.44831e-05
1415.67	0.00850514	-0.000339104	0	-7.09433e-05
1425.67	0.00837153	-0.000317086	0	5.39784e-06
1435.67	0.00844788	-0.000336558	0	-3.27727e-05
1445.67	0.00840971	-0.000333186	0	5.39784e-06
1455.67	0.00833336	-0.000330958	0	-3.27727e-05
1465.67	0.00844788	-0.000327395	0	0.000177165
1475.67	0.00839062	-0.00031664	0	-7.09433e-05
1485.67	0.00835245	-0.00032014	0	-3.27727e-05
1495.67	0.00839062	-0.000345467	0	-0.000109114
1505.67	0.0084288	-0.000311168	0	-9.00286e-05
1515.67	0.00848606	-0.000355776	0	8.1739e-05
1525.67	0.00844788	-0.000318804	0	-5.1858e-05
1535.67	0.0084288	-0.000324722	0	2.44831e-05
1545.67	0.00844788	-0.00030665	0	-1.36875e-05
1555.67	0.00840971	-0.000318931	0	-5.1858e-05
1565.67	0.0084288	-0.000315495	0	2.44831e-05
1575.67	0.00850514	-0.000312313	0	2.44831e-05
1585.67	0.0084288	-0.00031664	0	-1.36875e-05
1595.67	0.00844788	-0.000334395	0	0.00011991
1605.67	0.00852423	-0.000292586	0	6.26537e-05
1615.67	0.00839062	-0.000284886	0	5.39784e-06
1625.67	0.0084288	-0.000303086	0	2.44831e-05
1635.67	0.00839062	-0.000307541	0	4.35684e-05
1645.67	0.0085624	-0.000301941	0	5.39784e-06
1655.67	0.00840971	-0.000323704	0	0.000100824
1665.67	0.00840971	-0.000291123	0	-1.36875e-05
1675.67	0.00840971	-0.000303532	0	4.35684e-05
1685.67	0.00837153	-0.000298568	0	-9.00286e-05
1695.67	0.00848606	-0.000291441	0	-1.36875e-05
1705.67	0.00850514	-0.000307032	0	0.000100824
1715.67	0.00839062	-0.000298695	0	4.35684e-05
1725.67	0.00844788	-0.000278714	0	8.1739e-05
1735.67	0.00840971	-0.000303595	0	5.39784e-06
1745.67	0.0084288	-0.000298886	0	4.35684e-05
1755.67	0.00840971	-0.000275468	0	0.000234421
1765.67	0.00839062	-0.000298059	0	4.35684e-05
1775.67	0.00840971	-0.000304995	0	0.000138995
1785.67	0.0084288	-0.000299841	0	0.00011991
1795.67	0.00846697	-0.00024906	0	6.26537e-05
1805.67	0.0084288	-0.000296086	0	4.35684e-05
1815.67	0.00844788	-0.000292141	0	6.26537e-05
1825.67	0.00846697	-0.000296659	0	-5.1858e-05
1835.67	0.00835245	-0.000282977	0	8.1739e-05
1845.67	0.0084288	-0.000285841	0	4.35684e-05
1855.67	0.00852423	-0.000290677	0	4.35684e-05
1860.05	0.00839062	-0.00027935	0	-1.36875e-05