File: EXPERIMENTAL/DATA/Electrochemical-cycling/S-series/2024-07-04_S27_Icell_t1800_C0010_J01_deltaX-109,6mm_12mmLi_02_MB_C03.txt
time/s	Ewe/V	I/mA	error	Ece/V
60.053	2.91403	-0.0250202	0	-0.000486187
60.1732	0.00940827	-27.6243	0	6.566e-05
60.1736	0.00929375	-27.5364	0	4.65743e-05
60.174	0.00948462	-27.4441	0	2.74886e-05
60.1742	0.00940827	-27.3938	0	-8.70256e-05
60.1746	0.0095228	-27.3021	0	2.74886e-05
60.175	0.00940827	-27.211	0	6.566e-05
60.1752	0.00948462	-27.1525	0	2.74886e-05
60.1756	0.00944645	-27.0729	0	4.65743e-05
60.1758	0.00946554	-27.0149	0	-1.06828e-05
60.1762	0.0093701	-26.9315	0	-1.06828e-05
60.1766	0.0093701	-26.8398	0	-8.70256e-05
60.177	0.00946554	-26.7513	0	4.65743e-05
60.1774	0.00933192	-26.6641	0	-4.88542e-05
60.1776	0.00931284	-26.6132	0	2.74886e-05
60.178	0.00940827	-26.5291	0	-8.70256e-05
60.1784	0.00946554	-26.4438	0	-2.97685e-05
60.1788	0.0093701	-26.3611	0	6.566e-05
60.1792	0.00931284	-26.2726	0	6.566e-05
60.1796	0.00940827	-26.1904	0	0.000103831
60.18	0.00954188	-26.1038	0	8.4029e-06
60.1804	0.00938919	-26.0274	0	6.566e-05
60.1808	0.00942736	-25.9396	0	0.000103831
60.1812	0.00938919	-25.8619	0	-6.79399e-05
60.1816	0.0095228	-25.7829	0	2.74886e-05
60.182	0.00948462	-25.6983	0	0.000142003
60.1824	0.00940827	-25.6225	0	8.47457e-05
60.1828	0.00946554	-25.5346	0	2.74886e-05
60.1832	0.00948462	-25.4595	0	-4.88542e-05
60.1836	0.00938919	-25.3825	0	-8.70256e-05
60.184	0.00933192	-25.3041	0	6.566e-05
60.1844	0.00940827	-25.2271	0	-4.88542e-05
60.1848	0.0093701	-25.1539	0	2.74886e-05
60.1852	0.00940827	-25.0781	0	-4.88542e-05
60.1856	0.00942736	-25.0004	0	0.000103831
60.186	0.00935101	-24.9349	0	8.47457e-05
60.1864	0.00950371	-24.8476	0	-2.97685e-05
60.1868	0.00938919	-24.7789	0	-1.06828e-05
60.1872	0.00946554	-24.7037	0	2.74886e-05
60.1876	0.00938919	-24.6337	0	8.4029e-06
60.188	0.00942736	-24.5649	0	8.47457e-05
60.1884	0.00944645	-24.4892	0	4.65743e-05
60.1888	0.00942736	-24.4268	0	-0.000106111
60.1892	0.00950371	-24.358	0	-2.97685e-05
60.1896	0.0093701	-24.281	0	8.4029e-06
60.19	0.00940827	-24.2122	0	-0.000106111
60.1904	0.00954188	-24.1441	0	0.000122917
60.1908	0.0093701	-24.0849	0	-1.06828e-05
60.1912	0.00948462	-24.011	0	-2.97685e-05
60.1916	0.00942736	-23.9378	0	-8.70256e-05
60.192	0.0093701	-23.8716	0	4.65743e-05
60.1924	0.00940827	-23.8143	0	6.566e-05
60.1928	0.00931284	-23.743	0	-4.88542e-05
60.1932	0.00938919	-23.6799	0	8.4029e-06
60.1936	0.00946554	-23.6137	0	0.000142003
60.194	0.00933192	-23.5513	0	-2.97685e-05
60.1944	0.0093701	-23.487	0	2.74886e-05
60.1948	0.00940827	-23.4214	0	0.000180174
60.1952	0.00944645	-23.3552	0	2.74886e-05
60.1956	0.00946554	-23.2992	0	-4.88542e-05
60.196	0.00940827	-23.2323	0	8.4029e-06
60.1964	0.00942736	-23.1687	0	-4.88542e-05
60.1968	0.00946554	-23.1095	0	0.000122917
60.1972	0.00938919	-23.0566	0	-4.88542e-05
60.1976	0.00942736	-22.9859	0	-1.06828e-05
60.198	0.00944645	-22.9255	0	4.65743e-05
60.1984	0.0093701	-22.8688	0	-4.88542e-05
60.1988	0.0095228	-22.8089	0	-6.79399e-05
60.1992	0.0095228	-22.7485	0	6.566e-05
60.1996	0.00940827	-22.6899	0	-2.97685e-05
60.2	0.00933192	-22.6351	0	-1.06828e-05
60.2004	0.00935101	-22.5759	0	-2.97685e-05
60.2008	0.0095228	-22.5193	0	0.000103831
60.2012	0.0093701	-22.4639	0	6.566e-05
60.2016	0.00956097	-22.4015	0	8.4029e-06
60.202	0.00944645	-22.3493	0	-6.79399e-05
60.2024	0.00942736	-22.2907	0	0.000122917
60.2028	0.00933192	-22.2353	0	-4.88542e-05
60.2032	0.00942736	-22.185	0	8.47457e-05
60.2036	0.00944645	-22.1188	0	-1.06828e-05
60.2042	0.0093701	-22.0322	0	-2.97685e-05
60.2048	0.00935101	-21.9609	0	0.000103831
60.2052	0.00954188	-21.8998	0	2.74886e-05
60.2058	0.00938919	-21.8253	0	-1.06828e-05
60.2062	0.00942736	-21.7718	0	0.000142003
60.2066	0.00933192	-21.7215	0	2.74886e-05
60.207	0.00950371	-21.668	0	-4.88542e-05
60.2074	0.0093701	-21.6043	0	-1.06828e-05
60.208	0.00942736	-21.5349	0	8.4029e-06
60.2084	0.00946554	-21.4764	0	6.566e-05
60.209	0.00950371	-21.3999	0	2.74886e-05
60.2096	0.00942736	-21.3261	0	-4.88542e-05
60.2102	0.00940827	-21.2605	0	-8.70256e-05
60.2106	0.00942736	-21.1975	0	4.65743e-05
60.2112	0.00948462	-21.1249	0	-4.88542e-05
60.2118	0.00938919	-21.0593	0	-1.06828e-05
60.2122	0.00954188	-21.0058	0	8.4029e-06
60.2128	0.00950371	-20.9352	0	-1.06828e-05
60.2132	0.00944645	-20.8798	0	0.000180174
60.2138	0.0093701	-20.811	0	0.000122917
60.2144	0.00942736	-20.7442	0	4.65743e-05
60.215	0.00940827	-20.662	0	8.47457e-05
60.2156	0.00929375	-20.6022	0	-1.06828e-05
60.216	0.00942736	-20.5519	0	4.65743e-05
60.2166	0.00933192	-20.4882	0	-6.79399e-05
60.217	0.00948462	-20.4354	0	-1.06828e-05
60.2176	0.00944645	-20.373	0	8.47457e-05
60.2182	0.00950371	-20.2991	0	-4.88542e-05
60.2188	0.00940827	-20.2393	0	-6.79399e-05
60.2194	0.00938919	-20.1667	0	4.65743e-05
60.22	0.00944645	-20.0992	0	6.566e-05
60.2206	0.00942736	-20.0317	0	-6.79399e-05
60.2212	0.0093701	-19.9661	0	0.000103831
60.2218	0.0093701	-19.9012	0	-4.88542e-05
60.2224	0.00942736	-19.8375	0	8.4029e-06
60.223	0.00935101	-19.7738	0	-0.000106111
60.2236	0.0093701	-19.7114	0	0.000103831
60.2242	0.00938919	-19.6529	0	6.566e-05
60.2248	0.00946554	-19.5809	0	0.000103831
60.2254	0.00942736	-19.5192	0	-2.97685e-05
60.226	0.00946554	-19.4542	0	4.65743e-05
60.2266	0.00942736	-19.3931	0	8.47457e-05
60.2272	0.00929375	-19.3301	0	-4.88542e-05
60.2278	0.00944645	-19.2734	0	0.00019926
60.2284	0.00950371	-19.2123	0	6.566e-05
60.229	0.0093701	-19.1613	0	-6.79399e-05
60.2296	0.00944645	-19.0907	0	-0.000106111
60.2302	0.00950371	-19.027	0	0.000122917
60.2308	0.00946554	-18.9684	0	0.000122917
60.2314	0.00940827	-18.9118	0	6.566e-05
60.232	0.00938919	-18.8506	0	8.4029e-06
60.2326	0.00948462	-18.7914	0	4.65743e-05
60.2332	0.00935101	-18.7411	0	2.74886e-05
60.2338	0.00944645	-18.6755	0	-6.79399e-05
60.2346	0.00948462	-18.6119	0	2.74886e-05
60.2352	0.00954188	-18.5469	0	0.00019926
60.2358	0.0093701	-18.4941	0	0.000122917
60.2364	0.00946554	-18.4412	0	6.566e-05
60.237	0.0095228	-18.3846	0	-8.70256e-05
60.2376	0.00940827	-18.3247	0	2.74886e-05
60.2382	0.0093701	-18.2636	0	0.000122917
60.239	0.00948462	-18.1993	0	-2.97685e-05
60.2396	0.00946554	-18.1464	0	6.566e-05
60.2402	0.00940827	-18.0942	0	4.65743e-05
60.241	0.00950371	-18.0223	0	2.74886e-05
60.2416	0.0093701	-17.9675	0	0.000161088
60.2422	0.00942736	-17.9172	0	-2.97685e-05
60.2428	0.00948462	-17.8587	0	8.4029e-06
60.2434	0.00942736	-17.8084	0	-1.06828e-05
60.2442	0.00942736	-17.7351	0	8.47457e-05
60.245	0.00942736	-17.6778	0	-2.97685e-05
60.2456	0.0093701	-17.6269	0	6.566e-05
60.2462	0.00929375	-17.5728	0	-2.97685e-05
60.2468	0.00938919	-17.5212	0	2.74886e-05
60.2474	0.00946554	-17.469	0	-2.97685e-05
60.2482	0.00942736	-17.406	0	8.47457e-05
60.2488	0.0093701	-17.3525	0	8.47457e-05
60.2496	0.0093701	-17.2914	0	-4.88542e-05
60.2502	0.00956097	-17.2411	0	-6.79399e-05
60.251	0.00946554	-17.1723	0	0.000142003
60.2518	0.00938919	-17.1093	0	4.65743e-05
60.2526	0.00944645	-17.0532	0	2.74886e-05
60.2532	0.00938919	-16.9991	0	-4.88542e-05
60.254	0.00938919	-16.945	0	-4.88542e-05
60.2546	0.00950371	-16.8903	0	-4.88542e-05
60.2552	0.00940827	-16.8368	0	0.000103831
60.256	0.0093701	-16.7788	0	0.000122917
60.2568	0.00944645	-16.7222	0	6.566e-05
60.2574	0.0093701	-16.6693	0	0.000103831
60.2582	0.0095228	-16.6107	0	2.74886e-05
60.259	0.00940827	-16.5585	0	8.47457e-05
60.2598	0.00948462	-16.4936	0	-2.97685e-05
60.2606	0.00944645	-16.4337	0	8.47457e-05
60.2614	0.00938919	-16.3803	0	0.000142003
60.2622	0.00944645	-16.3153	0	-2.97685e-05
60.263	0.00942736	-16.2536	0	-1.06828e-05
60.2638	0.00950371	-16.2033	0	0.000142003
60.2646	0.00954188	-16.1396	0	-2.97685e-05
60.2654	0.00938919	-16.088	0	-4.88542e-05
60.2662	0.00942736	-16.0314	0	8.4029e-06
60.267	0.00940827	-15.9791	0	-8.70256e-05
60.2678	0.00944645	-15.9148	0	0.000122917
60.2686	0.00935101	-15.862	0	2.74886e-05
60.2694	0.00942736	-15.8041	0	-8.70256e-05
60.2702	0.00950371	-15.7506	0	-4.88542e-05
60.271	0.00944645	-15.6984	0	-4.88542e-05
60.2718	0.0095228	-15.6462	0	-2.97685e-05
60.2726	0.00946554	-15.5876	0	4.65743e-05
60.2734	0.0093701	-15.5341	0	0.000180174
60.2742	0.00944645	-15.4832	0	4.65743e-05
60.275	0.00950371	-15.4265	0	6.566e-05
60.2758	0.00940827	-15.3749	0	-6.79399e-05
60.2768	0.00938919	-15.3068	0	-1.06828e-05
60.2776	0.00950371	-15.2527	0	2.74886e-05
60.2786	0.0093701	-15.1979	0	-1.06828e-05
60.2794	0.0093701	-15.1419	0	-1.06828e-05
60.2804	0.00940827	-15.084	0	0.000122917
60.2812	0.00944645	-15.0267	0	4.65743e-05
60.2822	0.0095228	-14.9706	0	8.4029e-06
60.283	0.0095228	-14.9171	0	4.65743e-05
60.2838	0.00950371	-14.8668	0	-8.70256e-05
60.2848	0.00948462	-14.8083	0	-1.06828e-05
60.2856	0.00944645	-14.758	0	8.47457e-05
60.2866	0.00942736	-14.7007	0	8.4029e-06
60.2874	0.00942736	-14.6504	0	8.47457e-05
60.2886	0.00950371	-14.5752	0	4.65743e-05
60.2896	0.00938919	-14.5218	0	8.4029e-06
60.2906	0.00935101	-14.4632	0	4.65743e-05
60.2916	0.00940827	-14.4078	0	6.566e-05
60.2924	0.00940827	-14.3524	0	6.566e-05
60.2934	0.00944645	-14.3015	0	-0.000144283
60.2944	0.00942736	-14.2461	0	-1.06828e-05
60.2954	0.00946554	-14.192	0	2.74886e-05
60.2964	0.00948462	-14.1366	0	-2.97685e-05
60.2974	0.00931284	-14.0748	0	2.74886e-05
60.2984	0.00946554	-14.0226	0	0.000122917
60.2996	0.00946554	-13.9596	0	4.65743e-05
60.3006	0.00946554	-13.9061	0	0.000122917
60.3016	0.00942736	-13.8526	0	0.000103831
60.3024	0.00946554	-13.801	0	4.65743e-05
60.3036	0.0095228	-13.7418	0	4.65743e-05
60.3048	0.00944645	-13.6902	0	8.47457e-05
60.3058	0.00950371	-13.6272	0	-1.06828e-05
60.307	0.00946554	-13.5597	0	-4.88542e-05
60.3082	0.00942736	-13.5043	0	-2.97685e-05
60.3092	0.00959915	-13.4515	0	0.000103831
60.3104	0.00950371	-13.3935	0	2.74886e-05
60.3116	0.00929375	-13.3375	0	-4.88542e-05
60.3128	0.00946554	-13.2668	0	2.74886e-05
60.314	0.00950371	-13.214	0	0.000103831
60.3152	0.0093701	-13.1599	0	8.4029e-06
60.3164	0.00950371	-13.0988	0	0.000122917
60.3176	0.00944645	-13.044	0	-4.88542e-05
60.3188	0.00938919	-12.9905	0	-4.88542e-05
60.32	0.0093701	-12.9313	0	-2.97685e-05
60.3212	0.00946554	-12.8734	0	2.74886e-05
60.3224	0.00946554	-12.8205	0	8.47457e-05
60.3236	0.0095228	-12.7683	0	6.566e-05
60.3248	0.00940827	-12.7167	0	-1.06828e-05
60.326	0.00944645	-12.6588	0	-2.97685e-05
60.3272	0.00948462	-12.6053	0	0.000142003
60.3284	0.00944645	-12.5544	0	-1.06828e-05
60.3298	0.0093701	-12.4958	0	-1.06828e-05
60.331	0.00950371	-12.4449	0	-2.97685e-05
60.332	0.00950371	-12.3939	0	8.4029e-06
60.3332	0.0095228	-12.3436	0	-6.79399e-05
60.3346	0.00940827	-12.2857	0	0.000161088
60.336	0.00946554	-12.2316	0	2.74886e-05
60.3374	0.00948462	-12.1705	0	-4.88542e-05
60.3388	0.00948462	-12.1087	0	8.4029e-06
60.3402	0.00944645	-12.0571	0	-6.79399e-05
60.3414	0.00948462	-12.0049	0	6.566e-05
60.343	0.00946554	-11.9425	0	0.000142003
60.3444	0.00948462	-11.8884	0	8.47457e-05
60.3458	0.00933192	-11.8381	0	-8.70256e-05
60.3472	0.00948462	-11.7789	0	-1.06828e-05
60.3486	0.0093701	-11.7273	0	-4.88542e-05
60.3502	0.00948462	-11.6687	0	0.000122917
60.3516	0.00938919	-11.6172	0	-4.88542e-05
60.3532	0.0095228	-11.5624	0	4.65743e-05
60.3546	0.00933192	-11.5057	0	4.65743e-05
60.3562	0.0095228	-11.4523	0	0.000122917
60.3576	0.00946554	-11.4013	0	6.566e-05
60.359	0.00950371	-11.3421	0	2.74886e-05
60.3606	0.00942736	-11.2855	0	4.65743e-05
60.3624	0.00946554	-11.232	0	8.4029e-06
60.364	0.00950371	-11.1779	0	4.65743e-05
60.3656	0.0093701	-11.1256	0	-2.97685e-05
60.367	0.00940827	-11.0747	0	6.566e-05
60.3686	0.00946554	-11.02	0	-1.06828e-05
60.3704	0.00944645	-10.9595	0	2.74886e-05
60.3722	0.00942736	-10.9053	0	-2.97685e-05
60.3738	0.0095228	-10.8525	0	4.65743e-05
60.3756	0.00946554	-10.7997	0	-8.70256e-05
60.377	0.00942736	-10.7481	0	8.47457e-05
60.3788	0.0095228	-10.6978	0	-1.06828e-05
60.3804	0.00938919	-10.6405	0	2.74886e-05
60.3824	0.00948462	-10.5813	0	2.74886e-05
60.3844	0.0093701	-10.5221	0	-2.97685e-05
60.3862	0.00946554	-10.4705	0	-2.97685e-05
60.388	0.00942736	-10.4157	0	-2.97685e-05
60.3902	0.00961823	-10.3559	0	8.47457e-05
60.3922	0.0093701	-10.296	0	-2.97685e-05
60.3944	0.00944645	-10.2406	0	2.74886e-05
60.396	0.00948462	-10.1891	0	0.000122917
60.3984	0.00946554	-10.1292	0	0.000142003
60.4002	0.00933192	-10.0789	0	0.000103831
60.4022	0.00956097	-10.0235	0	-1.06828e-05
60.4044	0.00944645	-9.97259	0	-1.06828e-05
60.4064	0.00948462	-9.91847	0	0.000142003
60.4086	0.00938919	-9.86754	0	6.566e-05
60.4106	0.00935101	-9.80769	0	6.566e-05
60.4128	0.00942736	-9.75421	0	0.000122917
60.415	0.00935101	-9.69882	0	0.000142003
60.417	0.00933192	-9.64724	0	2.74886e-05
60.4196	0.00940827	-9.58867	0	-1.06828e-05
60.4216	0.00935101	-9.53837	0	-6.79399e-05
60.424	0.0095228	-9.48489	0	-1.06828e-05
60.4266	0.00942736	-9.42886	0	4.65743e-05
60.4288	0.00942736	-9.37601	0	8.4029e-06
60.4312	0.00933192	-9.3238	0	8.4029e-06
60.4334	0.0093701	-9.27032	0	-1.06828e-05
60.4362	0.00946554	-9.21493	0	-4.88542e-05
60.4388	0.00948462	-9.16208	0	0.000180174
60.4414	0.00938919	-9.1086	0	-2.97685e-05
60.4438	0.00940827	-9.05766	0	0.000103831
60.4464	0.00948462	-9.00418	0	2.74886e-05
60.4488	0.00935101	-8.95389	0	8.4029e-06
60.4514	0.00954188	-8.89595	0	-2.97685e-05
60.4544	0.00942736	-8.83992	0	-1.06828e-05
60.4576	0.00946554	-8.77816	0	2.74886e-05
60.4604	0.00946554	-8.72786	0	-6.79399e-05
60.4634	0.00944645	-8.67056	0	-8.70256e-05
60.4664	0.00940827	-8.61898	0	0.000103831
60.4692	0.00946554	-8.56423	0	4.65743e-05
60.4724	0.00950371	-8.51138	0	-2.97685e-05
60.4752	0.00950371	-8.4579	0	-4.88542e-05
60.4784	0.00946554	-8.4076	0	-8.70256e-05
60.481	0.0093701	-8.35667	0	-2.97685e-05
60.4844	0.00948462	-8.30446	0	8.4029e-06
60.4876	0.00948462	-8.25034	0	8.47457e-05
60.491	0.0093701	-8.19813	0	2.74886e-05
60.4942	0.00942736	-8.1472	0	6.566e-05
60.4976	0.00944645	-8.09562	0	-4.88542e-05
60.5008	0.00935101	-8.0415	0	-1.06828e-05
60.5042	0.00948462	-7.98866	0	-2.97685e-05
60.5076	0.00938919	-7.93836	0	8.47457e-05
60.511	0.00933192	-7.88742	0	2.74886e-05
60.5152	0.00956097	-7.82885	0	8.4029e-06
60.5188	0.00944645	-7.77537	0	-2.97685e-05
60.5224	0.00946554	-7.72443	0	0.000103831
60.5264	0.00942736	-7.67286	0	0.000218346
60.5302	0.00956097	-7.61938	0	2.74886e-05
60.5344	0.00946554	-7.56781	0	-2.97685e-05
60.5384	0.00948462	-7.51369	0	0.000122917
60.5424	0.00944645	-7.46339	0	-2.97685e-05
60.5468	0.00956097	-7.41182	0	-4.88542e-05
60.5508	0.00944645	-7.35961	0	8.47457e-05
60.5552	0.00942736	-7.30612	0	8.4029e-06
60.5596	0.00948462	-7.25583	0	8.4029e-06
60.5638	0.00938919	-7.1998	0	8.47457e-05
60.5686	0.00940827	-7.14695	0	8.47457e-05
60.5728	0.0093701	-7.09665	0	0.000142003
60.5778	0.00938919	-7.04635	0	0.000103831
60.5828	0.00938919	-6.99033	0	6.566e-05
60.5874	0.00940827	-6.93493	0	-6.79399e-05
60.593	0.00946554	-6.88336	0	-2.97685e-05
60.5982	0.00940827	-6.83243	0	0.000180174
60.6032	0.00946554	-6.78085	0	-4.88542e-05
60.6082	0.00942736	-6.72992	0	-4.88542e-05
60.6126	0.00950371	-6.67898	0	-4.88542e-05
60.6188	0.00946554	-6.62805	0	8.4029e-06
60.624	0.00942736	-6.57648	0	-1.06828e-05
60.6298	0.00942736	-6.5249	0	2.74886e-05
60.6354	0.00942736	-6.47333	0	8.4029e-06
60.6414	0.0093701	-6.42112	0	-1.06828e-05
60.6474	0.00933192	-6.36764	0	8.4029e-06
60.6532	0.0093701	-6.31034	0	8.47457e-05
60.6598	0.00946554	-6.25749	0	-0.000144283
60.6668	0.00948462	-6.20528	0	4.65743e-05
60.673	0.00944645	-6.15371	0	6.566e-05
60.6796	0.00946554	-6.10087	0	0.000122917
60.6868	0.00946554	-6.04738	0	-0.000106111
60.6938	0.00938919	-5.98881	0	4.65743e-05
60.7012	0.00946554	-5.93724	0	4.65743e-05
60.7078	0.0093701	-5.88694	0	-1.06828e-05
60.715	0.0095228	-5.83537	0	6.566e-05
60.7224	0.00938919	-5.78061	0	2.74886e-05
60.7306	0.0093701	-5.72649	0	0.000103831
60.739	0.00946554	-5.66792	0	-0.000182454
60.7474	0.00942736	-5.61698	0	-0.000125197
60.7558	0.00938919	-5.56541	0	2.74886e-05
60.7636	0.00950371	-5.51511	0	6.566e-05
60.771	0.00940827	-5.4629	0	2.74886e-05
60.78	0.00938919	-5.40942	0	2.74886e-05
60.789	0.00946554	-5.35912	0	2.74886e-05
60.798	0.00954188	-5.30818	0	4.65743e-05
60.8072	0.00938919	-5.25406	0	4.65743e-05
60.8174	0.00940827	-5.20186	0	8.47457e-05
60.8264	0.00948462	-5.15028	0	8.47457e-05
60.8358	0.00935101	-5.09744	0	2.74886e-05
60.846	0.00938919	-5.04268	0	-6.79399e-05
60.8558	0.00950371	-4.99111	0	-1.06828e-05
60.8672	0.00948462	-4.93763	0	8.4029e-06
60.879	0.0093701	-4.88096	0	-1.06828e-05
60.8908	0.00938919	-4.83066	0	4.65743e-05
60.9006	0.00940827	-4.78037	0	-2.97685e-05
60.913	0.00946554	-4.72816	0	0.000161088
60.9244	0.00938919	-4.67722	0	0.000103831
60.936	0.00946554	-4.62438	0	0.000122917
60.949	0.00944645	-4.57344	0	4.65743e-05
60.9618	0.00940827	-4.51805	0	-4.88542e-05
61.0046	0.0093701	-4.36552	0	4.65743e-05
61.018	0.00946554	-4.31545	0	-2.97685e-05
61.0318	0.00935101	-4.26538	0	-1.06828e-05
61.0464	0.0093701	-4.21436	0	8.4029e-06
61.0612	0.00956097	-4.16358	0	6.566e-05
61.0764	0.00950371	-4.113	0	6.566e-05
61.092	0.00938919	-4.06274	0	6.566e-05
61.1078	0.00946554	-4.01273	0	0.000122917
61.1242	0.00940827	-3.96215	0	0.000122917
61.141	0.00950371	-3.91202	0	6.566e-05
61.1584	0.00933192	-3.86131	0	0.000122917
61.1762	0.00946554	-3.81092	0	8.4029e-06
61.1944	0.0093701	-3.76078	0	-8.70256e-05
61.2132	0.00938919	-3.71052	0	8.4029e-06
61.233	0.00946554	-3.65924	0	-8.70256e-05
61.253	0.00944645	-3.60904	0	-0.000125197
61.2738	0.0093701	-3.55884	0	8.4029e-06
61.295	0.00944645	-3.50864	0	6.566e-05
61.3166	0.00938919	-3.45864	0	4.65743e-05
61.3396	0.00940827	-3.40787	0	-0.000106111
61.3628	0.00944645	-3.35786	0	2.74886e-05
61.387	0.00946554	-3.30772	0	-2.97685e-05
61.4118	0.00948462	-3.25765	0	8.47457e-05
61.4378	0.00950371	-3.20701	0	-6.79399e-05
61.4644	0.00946554	-3.15585	0	6.566e-05
61.4928	0.00954188	-3.10521	0	6.566e-05
61.5218	0.0093701	-3.05488	0	0.000103831
61.5514	0.00935101	-3.00462	0	8.47457e-05
61.5824	0.00950371	-2.95461	0	-6.79399e-05
61.6142	0.00946554	-2.90397	0	8.4029e-06
61.648	0.00956097	-2.85371	0	4.65743e-05
61.6826	0.00942736	-2.80325	0	6.566e-05
61.719	0.00942736	-2.75305	0	2.74886e-05
61.7566	0.00940827	-2.70305	0	2.74886e-05
61.796	0.00954188	-2.65285	0	6.566e-05
61.8366	0.00946554	-2.60239	0	-2.97685e-05
61.8794	0.00938919	-2.55181	0	8.47457e-05
61.924	0.00946554	-2.50168	0	-2.97685e-05
61.9708	0.00931284	-2.45122	0	6.566e-05
62.0198	0.0093701	-2.40122	0	8.47457e-05
62.0704	0.00935101	-2.35102	0	4.65743e-05
62.125	0.00935101	-2.30082	0	0.00019926
62.1818	0.00950371	-2.25062	0	0.000122917
62.24	0.00944645	-2.20036	0	2.74886e-05
62.3036	0.00935101	-2.1501	0	2.74886e-05
62.3684	0.00938919	-2.10009	0	0.000122917
62.4388	0.00942736	-2.05002	0	-4.88542e-05
62.5122	0.00944645	-2.00001	0	0.000122917
62.5896	0.0093701	-1.94968	0	8.4029e-06
62.6722	0.00940827	-1.89961	0	8.47457e-05
62.76	0.00944645	-1.84954	0	0.000122917
62.8518	0.00935101	-1.79909	0	8.4029e-06
62.9518	0.00940827	-1.74901	0	-1.06828e-05
63.0566	0.00938919	-1.69901	0	8.47457e-05
63.1704	0.00950371	-1.649	0	8.4029e-06
63.2912	0.00942736	-1.59835	0	-4.88542e-05
63.4228	0.0093701	-1.54835	0	-4.88542e-05
63.5642	0.0093701	-1.49834	0	0.000103831
63.7122	0.00938919	-1.44814	0	-1.06828e-05
63.8774	0.00944645	-1.398	0	-4.88542e-05
64.0548	0.00944645	-1.3478	0	8.47457e-05
64.2496	0.0093701	-1.2978	0	8.47457e-05
64.4584	0.00942736	-1.24747	0	-1.06828e-05
64.6958	0.00940827	-1.19746	0	4.65743e-05
64.9508	0.00946554	-1.14726	0	2.74886e-05
65.2268	0.00944645	-1.09662	0	8.4029e-06
65.538	0.00940827	-1.04655	0	8.4029e-06
65.8898	0.00940827	-0.99635	0	-1.06828e-05
66.2808	0.00935101	-0.946151	0	2.74886e-05
66.7188	0.00938919	-0.896143	0	4.65743e-05
67.2196	0.0093701	-0.846135	0	0.000142003
67.7892	0.00940827	-0.795936	0	0.000161088
68.4566	0.00940827	-0.74561	0	-1.06828e-05
69.243	0.00935101	-0.695347	0	6.566e-05
70.1608	0.00933192	-0.645212	0	8.47457e-05
71.2698	0.00938919	-0.595141	0	0.000180174
72.626	0.00948462	-0.545069	0	-1.06828e-05
74.316	0.00942736	-0.495061	0	4.65743e-05
76.5344	0.0093701	-0.445033	0	4.65743e-05
79.3596	0.00940827	-0.394991	0	2.74886e-05
83.1692	0.00944645	-0.344962	0	-1.06828e-05
88.5814	0.00940827	-0.294933	0	2.74886e-05
96.7842	0.00950371	-0.244897	0	-4.88542e-05
106.784	0.00944645	-0.205019	0	-8.70256e-05
116.784	0.00935101	-0.177951	0	0.000122917
126.784	0.00935101	-0.157624	0	2.74886e-05
136.784	0.00948462	-0.141459	0	8.4029e-06
146.784	0.00948462	-0.128635	0	-4.88542e-05
156.784	0.00942736	-0.117981	0	8.4029e-06
166.784	0.00946554	-0.108798	0	8.4029e-06
176.784	0.00940827	-0.100619	0	4.65743e-05
186.784	0.00946554	-0.0936125	0	8.47457e-05
196.784	0.00946554	-0.0885211	0	8.4029e-06
206.784	0.00940827	-0.0834042	0	8.4029e-06
216.784	0.00938919	-0.0789874	0	8.4029e-06
226.784	0.00935101	-0.0749143	0	-1.06828e-05
236.784	0.00931284	-0.0707139	0	0.000142003
246.784	0.00946554	-0.0677227	0	-2.97685e-05
256.784	0.00950371	-0.0642224	0	0.000103831
266.784	0.00935101	-0.0614221	0	-6.79399e-05
276.784	0.00942736	-0.0591692	0	0.000103831
286.784	0.00938919	-0.0566362	0	-4.88542e-05
296.784	0.00948462	-0.0543642	0	-2.97685e-05
306.784	0.00935101	-0.0524549	0	8.4029e-06
316.784	0.00938919	-0.0502656	0	8.4029e-06
326.784	0.00948462	-0.0483181	0	0.000161088
336.784	0.00944645	-0.0466889	0	0.000161088
346.784	0.00944645	-0.0451296	0	4.65743e-05
356.784	0.00946554	-0.0437403	0	-0.000125197
366.784	0.00940827	-0.0423125	0	6.566e-05
376.784	0.00944645	-0.0410146	0	-1.06828e-05
386.784	0.00935101	-0.0397032	0	2.74886e-05
396.784	0.00929375	-0.0386967	0	6.566e-05
406.784	0.00944645	-0.0375031	0	0.000122917
416.784	0.00948462	-0.0366371	0	4.65743e-05
426.784	0.00935101	-0.0355358	0	-0.000125197
436.784	0.00938919	-0.0346819	0	8.47457e-05
446.784	0.00944645	-0.0338306	0	4.65743e-05
456.784	0.00938919	-0.0331033	0	-1.06828e-05
466.784	0.00940827	-0.0325231	0	6.566e-05
476.784	0.0093701	-0.0318066	0	2.74886e-05
486.784	0.00942736	-0.0309133	0	6.566e-05
496.784	0.00938919	-0.0303515	0	0.000103831
506.784	0.00950371	-0.0297458	0	-6.79399e-05
516.784	0.0093701	-0.0291076	0	2.74886e-05
526.784	0.00946554	-0.0286922	0	8.47457e-05
536.784	0.00933192	-0.0280896	0	8.47457e-05
546.784	0.00935101	-0.0275679	0	-6.79399e-05
556.784	0.00944645	-0.0270761	0	8.47457e-05
566.784	0.00938919	-0.0266701	0	8.4029e-06
576.784	0.00948462	-0.0262241	0	-6.79399e-05
586.784	0.00940827	-0.0258074	0	6.566e-05
596.784	0.0093701	-0.0254262	0	8.4029e-06
606.784	0.00950371	-0.0250636	0	4.65743e-05
616.784	0.00942736	-0.0245692	0	8.4029e-06
626.784	0.00933192	-0.0242988	0	2.74886e-05
636.784	0.00944645	-0.0239743	0	4.65743e-05
646.784	0.00946554	-0.0235995	0	8.47457e-05
656.784	0.00931284	-0.0233209	0	0.000122917
666.784	0.00948462	-0.0230186	0	-2.97685e-05
676.784	0.0093701	-0.0228392	0	-6.79399e-05
686.784	0.00938919	-0.022453	0	2.74886e-05
696.784	0.00944645	-0.022285	0	-8.70256e-05
706.784	0.00938919	-0.0219994	0	-2.97685e-05
716.784	0.00938919	-0.0217302	0	8.4029e-06
726.784	0.00942736	-0.0215222	0	6.566e-05
736.784	0.0095228	-0.021218	0	8.47457e-05
746.784	0.00942736	-0.0210081	0	0.000180174
756.784	0.00944645	-0.020912	0	4.65743e-05
766.784	0.00940827	-0.0206511	0	-1.06828e-05
776.784	0.00946554	-0.0203826	0	8.4029e-06
786.784	0.00938919	-0.0202745	0	8.4029e-06
796.784	0.00940827	-0.0200161	0	-0.000106111
806.784	0.00940827	-0.0198921	0	6.566e-05
816.784	0.00935101	-0.0194753	0	-1.06828e-05
826.784	0.00946554	-0.0195039	0	0.000142003
836.784	0.00940827	-0.0191941	0	2.74886e-05
846.784	0.00940827	-0.0191877	0	-1.06828e-05
856.784	0.00948462	-0.018979	0	-1.06828e-05
866.784	0.00935101	-0.0187137	0	6.566e-05
876.784	0.00940827	-0.0185184	0	-1.06828e-05
886.784	0.00940827	-0.0184738	0	-6.79399e-05
896.784	0.00946554	-0.0181843	0	-0.000125197
906.784	0.00940827	-0.0182053	0	4.65743e-05
916.784	0.0095228	-0.018024	0	0.000122917
926.784	0.00935101	-0.017996	0	8.4029e-06
936.784	0.00933192	-0.0177447	0	2.74886e-05
946.784	0.00935101	-0.0175615	0	-2.97685e-05
956.784	0.0093701	-0.0174221	0	8.4029e-06
966.784	0.00938919	-0.0173254	0	2.74886e-05
976.784	0.00942736	-0.0173165	0	6.566e-05
986.784	0.00938919	-0.0170963	0	8.47457e-05
996.784	0.00944645	-0.0170085	0	-1.06828e-05
1006.78	0.00940827	-0.0167769	0	8.4029e-06
1016.78	0.00946554	-0.0167878	0	8.47457e-05
1026.78	0.00944645	-0.0166631	0	8.47457e-05
1036.78	0.00931284	-0.016644	0	6.566e-05
1046.78	0.00925558	-0.0165059	0	6.566e-05
1056.78	0.00944645	-0.0163716	0	-4.88542e-05
1066.78	0.0093701	-0.0162329	0	-2.97685e-05
1076.78	0.00940827	-0.0161178	0	4.65743e-05
1086.78	0.00944645	-0.0160503	0	8.4029e-06
1096.78	0.00944645	-0.0158582	0	2.74886e-05
1106.78	0.00956097	-0.0158875	0	0.000180174
1116.78	0.0093701	-0.0157188	0	-4.88542e-05
1126.78	0.00944645	-0.0156858	0	-2.97685e-05
1136.78	0.00940827	-0.0156571	0	-8.70256e-05
1146.78	0.00940827	-0.0155598	0	-2.97685e-05
1156.78	0.00948462	-0.015528	0	8.4029e-06
1166.78	0.00938919	-0.0153396	0	4.65743e-05
1176.78	0.00944645	-0.0153116	0	-0.000106111
1186.78	0.00938919	-0.0152684	0	8.4029e-06
1196.78	0.00944645	-0.0151246	0	4.65743e-05
1206.78	0.00940827	-0.0150069	0	-1.06828e-05
1216.78	0.00944645	-0.0149782	0	0.000142003
1226.78	0.00944645	-0.0149019	0	-2.97685e-05
1236.78	0.00933192	-0.0147282	0	6.566e-05
1246.78	0.00944645	-0.0147358	0	6.566e-05
1256.78	0.00946554	-0.014524	0	2.74886e-05
1266.78	0.00944645	-0.0146328	0	2.74886e-05
1276.78	0.00938919	-0.014461	0	0.000122917
1286.78	0.00944645	-0.0144966	0	2.74886e-05
1296.78	0.00942736	-0.0144406	0	0.000142003
1306.78	0.00940827	-0.0142548	0	8.47457e-05
1316.78	0.00938919	-0.0143057	0	-0.000144283
1326.78	0.00940827	-0.0141371	0	4.65743e-05
1336.78	0.0095228	-0.0141301	0	0.000142003
1346.78	0.00923649	-0.0140347	0	0.000122917
1356.78	0.00944645	-0.0140207	0	0.000103831
1366.78	0.00935101	-0.0139316	0	0.000103831
1376.78	0.00940827	-0.0139774	0	8.47457e-05
1386.78	0.00944645	-0.01384	0	4.65743e-05
1396.78	0.00940827	-0.0137662	0	4.65743e-05
1406.78	0.00935101	-0.0136606	0	-6.79399e-05
1416.78	0.00940827	-0.0136376	0	0.000103831
1426.78	0.00935101	-0.0135899	0	8.4029e-06
1436.78	0.00938919	-0.0136256	0	8.4029e-06
1446.78	0.00933192	-0.0134519	0	-4.88542e-05
1456.78	0.00944645	-0.0134684	0	-1.06828e-05
1466.78	0.00946554	-0.0134805	0	2.74886e-05
1476.78	0.00935101	-0.0133062	0	8.4029e-06
1486.78	0.00944645	-0.0133322	0	-2.97685e-05
1496.78	0.00948462	-0.0132902	0	8.47457e-05
1506.78	0.00940827	-0.0131197	0	8.4029e-06
1516.78	0.00938919	-0.0131751	0	6.566e-05
1526.78	0.00940827	-0.0131426	0	0.000122917
1536.78	0.00948462	-0.0131713	0	0.000122917
1546.78	0.0093701	-0.0130377	0	-2.97685e-05
1556.78	0.00931284	-0.0130389	0	2.74886e-05
1566.78	0.00938919	-0.0130154	0	6.566e-05
1576.78	0.0093701	-0.0128582	0	6.566e-05
1586.78	0.00950371	-0.0129269	0	-8.70256e-05
1596.78	0.00938919	-0.0128958	0	2.74886e-05
1606.78	0.00935101	-0.0128162	0	0.000103831
1616.78	0.0095228	-0.0127278	0	-2.97685e-05
1626.78	0.00931284	-0.0127221	0	0.000122917
1636.78	0.00948462	-0.0126705	0	-2.97685e-05
1646.78	0.00938919	-0.0126203	0	8.4029e-06
1656.78	0.0093701	-0.0126826	0	-6.79399e-05
1666.78	0.00944645	-0.0125503	0	0.000122917
1676.78	0.00938919	-0.0124631	0	8.4029e-06
1686.78	0.00950371	-0.0124892	0	-6.79399e-05
1696.78	0.0093701	-0.0124657	0	-8.70256e-05
1706.78	0.00944645	-0.0124046	0	2.74886e-05
1716.78	0.00946554	-0.01232	0	2.74886e-05
1726.78	0.00948462	-0.0123009	0	4.65743e-05
1736.78	0.0093701	-0.0124109	0	0.000180174
1746.78	0.00938919	-0.0122506	0	-1.06828e-05
1756.78	0.00950371	-0.012173	0	8.47457e-05
1766.78	0.00940827	-0.0121062	0	8.47457e-05
1776.78	0.00938919	-0.0121233	0	2.74886e-05
1786.78	0.00944645	-0.0121354	0	0.000103831
1796.78	0.00948462	-0.0119681	0	6.566e-05
1806.78	0.00948462	-0.0119535	0	-2.97685e-05
1816.78	0.00938919	-0.0120705	0	4.65743e-05
1826.78	0.00940827	-0.0118784	0	8.4029e-06
1836.78	0.00946554	-0.011886	0	2.74886e-05
1846.78	0.00938919	-0.011769	0	0.000103831
1856.78	0.00944645	-0.0118059	0	-0.000106111
1860.05	0.00942736	-0.0117989	0	0.000161088