File: EXPERIMENTAL/DATA/Electrochemical-cycling/S-series/2024-07-02_S21_Icell_t1800_C0000_J01_deltaX-110,1mm_plating-stripping_05_MB_C03.txt
time/s	Ewe/V	I/mA	error	Ece/V
1896.36	-0.0567518	0.194833	0	-0.000563973
1896.36	-0.0427434	0.196033	0	-6.55542e-05
1896.41	-0.0330471	0.196028	0	1.07886e-05
1896.49	-0.0237135	0.196031	0	-8.29709e-06
1896.61	-0.0144371	0.196034	0	0.000106217
1896.77	-0.0049507	0.19603	0	-8.29709e-06
1896.99	0.00442113	0.196037	0	-4.64685e-05
1897.31	0.0136212	0.196037	0	-4.64685e-05
1897.79	0.0230503	0.196034	0	-6.55542e-05
1898.51	0.0323267	0.196034	0	0.000106217
1899.55	0.0415076	0.196035	0	2.98743e-05
1901.29	0.0507649	0.196027	0	-4.64685e-05
1917.4	0.0599841	0.196037	0	-8.29709e-06
1922.92	0.0693368	0.19604	0	-8.29709e-06
1924.39	0.0786132	0.196037	0	1.07886e-05
1925.1	0.0879278	0.196025	0	2.98743e-05
1925.51	0.0973378	0.196031	0	6.80457e-05
1925.84	0.106748	0.196034	0	2.98743e-05
1926.15	0.116005	0.196034	0	0.000125303
1926.48	0.125339	0.196036	0	0.000106217
1926.8	0.134882	0.196039	0	4.896e-05
1927.1	0.14414	0.196036	0	2.98743e-05
1927.39	0.153454	0.196026	0	1.07886e-05
1927.66	0.162654	0.196032	0	8.71314e-05
1927.95	0.171912	0.196037	0	1.07886e-05
1928.32	0.181207	0.196038	0	-0.000160983
1928.78	0.190522	0.196037	0	-4.64685e-05
1929.5	0.199817	0.196038	0	4.896e-05
1929.96	0.209017	0.196027	0	0.000125303
1930.23	0.218408	0.196039	0	0.000106217
1930.42	0.227646	0.196041	0	0.000106217
1930.57	0.237018	0.196036	0	0.000125303
1930.72	0.246466	0.196037	0	0.000106217
1930.85	0.255934	0.196026	0	4.896e-05
1930.95	0.265286	0.196039	0	2.98743e-05
1931.04	0.274811	0.196043	0	6.80457e-05
1931.11	0.284183	0.196034	0	4.896e-05
1931.18	0.293669	0.196037	0	0.000125303
1931.23	0.30306	0.196031	0	8.71314e-05
1931.27	0.312871	0.196038	0	4.896e-05
1931.31	0.322395	0.196042	0	-4.64685e-05
1931.35	0.332053	0.19603	0	0.000106217
1931.38	0.34175	0.196039	0	8.71314e-05
1931.41	0.351465	0.196035	0	2.98743e-05
1931.44	0.36099	0.196038	0	0.000125303
1931.47	0.370686	0.196039	0	0.000125303
1931.49	0.380134	0.196036	0	-2.73828e-05
1931.52	0.389659	0.196028	0	0.000125303
1931.54	0.39926	0.196031	0	4.896e-05
1931.56	0.409032	0.196036	0	4.896e-05
1931.59	0.418767	0.196032	0	1.07886e-05
1931.61	0.428387	0.196038	0	0.000144388
1931.63	0.438179	0.196038	0	0.000220731
1931.65	0.447932	0.196034	0	2.98743e-05
1931.67	0.457647	0.196033	0	6.80457e-05
1931.69	0.466943	0.196036	0	8.71314e-05
1931.7	0.476658	0.196038	0	1.07886e-05
1931.72	0.486202	0.196029	0	4.896e-05
1931.74	0.495707	0.196036	0	0.000125303
1931.76	0.505404	0.196036	0	6.80457e-05
1931.78	0.515272	0.196036	0	0.00018256
1931.8	0.525178	0.196031	0	0.000106217
1931.81	0.534684	0.196035	0	-2.73828e-05
1931.83	0.544609	0.196029	0	-8.29709e-06
1931.85	0.554382	0.196039	0	0.000125303
1931.87	0.564231	0.196039	0	8.71314e-05
1931.89	0.573946	0.196038	0	0.00018256
1931.91	0.583852	0.196037	0	1.07886e-05
1931.92	0.59353	0.196032	0	-8.46399e-05
1931.94	0.603646	0.196032	0	4.896e-05
1931.96	0.613495	0.196034	0	2.98743e-05
1931.98	0.623363	0.196038	0	-8.29709e-06
1931.99	0.633212	0.196038	0	6.80457e-05
1932.01	0.642717	0.196041	0	-8.29709e-06
1932.03	0.65249	0.196031	0	-8.29709e-06
1932.04	0.662492	0.196037	0	2.98743e-05
1932.06	0.672112	0.196036	0	2.98743e-05
1932.08	0.682171	0.196042	0	0.000106217
1932.1	0.691924	0.196043	0	8.71314e-05
1932.11	0.701391	0.196034	0	-2.73828e-05
1932.13	0.710801	0.196046	0	4.896e-05
1932.14	0.720307	0.196031	0	6.80457e-05
1932.16	0.730213	0.196031	0	-2.73828e-05
1932.18	0.739967	0.196038	0	1.07886e-05
1932.19	0.749854	0.196034	0	0.000125303
1932.21	0.760027	0.196035	0	6.80457e-05
1932.22	0.769457	0.196038	0	1.07886e-05
1932.24	0.779325	0.196036	0	-4.64685e-05
1932.26	0.789155	0.196035	0	0.000106217
1932.27	0.799214	0.196033	0	4.896e-05
1932.29	0.809101	0.196032	0	-6.55542e-05
1932.31	0.81916	0.196038	0	-4.64685e-05
1932.32	0.828684	0.196044	0	6.80457e-05
1932.34	0.838457	0.196032	0	2.98743e-05
1932.35	0.848516	0.196033	0	1.07886e-05
1932.37	0.857907	0.196042	0	4.896e-05
1932.38	0.867641	0.196033	0	4.896e-05
1932.4	0.877796	0.196036	0	1.07886e-05
1932.41	0.887492	0.196031	0	6.80457e-05
1932.43	0.897341	0.196038	0	-8.46399e-05
1932.45	0.907362	0.196029	0	4.896e-05
1932.46	0.917115	0.196047	0	6.80457e-05
1932.48	0.927308	0.196027	0	0.000144388
1932.49	0.9371	0.196027	0	0.000125303
1932.51	0.946681	0.196039	0	6.80457e-05
1932.53	0.956588	0.196034	0	8.71314e-05
1932.54	0.966246	0.196039	0	8.71314e-05
1932.56	0.976229	0.196036	0	-6.55542e-05
1932.57	0.986001	0.196034	0	-8.29709e-06
1932.59	0.996022	0.196038	0	-6.55542e-05
1968.8	-0.0474961	0.196032	0	2.98743e-05
1968.81	-0.0365401	0.196027	0	0.000144388
1968.85	-0.0269201	0.196029	0	2.98743e-05
1968.94	-0.0175483	0.196024	0	0.000163474
1969.05	-0.00827188	0.196031	0	2.98743e-05
1969.21	0.000985427	0.196039	0	6.80457e-05
1969.44	0.0103191	0.196034	0	-8.46399e-05
1969.78	0.0198436	0.196038	0	1.07886e-05
1970.32	0.0292918	0.196037	0	0.000106217
1971.21	0.0385682	0.196036	0	0.000125303
1973.26	0.0478828	0.196041	0	2.98743e-05
1986.94	0.0570446	0.196043	0	8.71314e-05
1994.49	0.0663019	0.196038	0	0.000163474
1996.82	0.0756547	0.196034	0	0.000106217
1997.85	0.0850074	0.196038	0	0.000201646
1998.42	0.0942838	0.196042	0	4.896e-05
1998.78	0.103503	0.196038	0	-8.29709e-06
1999.07	0.112837	0.196037	0	6.80457e-05
1999.33	0.122208	0.196038	0	0.00018256
1999.58	0.131599	0.196036	0	-2.73828e-05
1999.78	0.140933	0.19603	0	-2.73828e-05
1999.96	0.150324	0.196034	0	2.98743e-05
2000.12	0.159658	0.196038	0	4.896e-05
2000.27	0.169068	0.196041	0	-4.64685e-05
2000.4	0.178363	0.196031	0	6.80457e-05
2000.53	0.187945	0.196036	0	0.00018256
2000.64	0.197412	0.196036	0	1.07886e-05
2000.72	0.206841	0.19604	0	4.896e-05
2000.8	0.216289	0.196039	0	-8.29709e-06
2000.86	0.225604	0.196033	0	6.80457e-05
2000.91	0.235281	0.19603	0	0.000144388
2000.96	0.24471	0.196032	0	2.98743e-05
2001.01	0.254235	0.196034	0	0.000125303
2001.05	0.263607	0.196039	0	8.71314e-05
2001.08	0.273036	0.196034	0	2.98743e-05
2001.12	0.282465	0.196036	0	2.98743e-05
2001.15	0.291799	0.196039	0	4.896e-05
2001.18	0.301285	0.196043	0	2.98743e-05
2001.2	0.31121	0.196034	0	-8.29709e-06
2001.23	0.320773	0.196039	0	1.07886e-05
2001.25	0.33024	0.196041	0	2.98743e-05
2001.28	0.340146	0.196046	0	4.896e-05
2001.3	0.349843	0.196034	0	-2.73828e-05
2001.32	0.359596	0.196033	0	0.000144388
2001.34	0.369064	0.196031	0	0.000163474
2001.36	0.378722	0.19604	0	8.71314e-05
2001.38	0.388151	0.196049	0	4.896e-05
2001.4	0.39779	0.196032	0	-2.73828e-05
2001.42	0.407524	0.19603	0	0.000125303
2001.43	0.417679	0.196031	0	6.80457e-05
2001.45	0.428043	0.196036	0	6.80457e-05
2001.47	0.437663	0.196036	0	-0.000103726
2001.49	0.447741	0.196036	0	4.896e-05
2001.5	0.457857	0.196036	0	0.000144388
2001.52	0.46805	0.196041	0	-8.46399e-05
2001.54	0.477632	0.196045	0	-2.73828e-05
2001.55	0.487214	0.196039	0	6.80457e-05
2001.57	0.497063	0.196036	0	-4.64685e-05
2001.58	0.506893	0.19603	0	-6.55542e-05
2001.6	0.51657	0.196031	0	8.71314e-05
2001.61	0.526572	0.196034	0	-8.29709e-06
2001.63	0.536191	0.196031	0	-8.29709e-06
2001.65	0.546117	0.196036	0	6.80457e-05
2001.66	0.555966	0.196047	0	-8.29709e-06
2001.68	0.565968	0.196038	0	0.000106217
2001.69	0.575817	0.196037	0	1.07886e-05
2001.71	0.586086	0.196035	0	-8.29709e-06
2001.72	0.595648	0.196038	0	6.80457e-05
2001.74	0.605822	0.196031	0	0.000106217
2001.75	0.615976	0.196037	0	4.896e-05
2001.77	0.625634	0.196038	0	8.71314e-05
2001.78	0.635331	0.196037	0	0.000125303
2001.79	0.645199	0.19604	0	-0.000103726
2001.81	0.654876	0.196034	0	0.00018256
2001.82	0.665068	0.196038	0	2.98743e-05
2001.84	0.674937	0.196038	0	-4.64685e-05
2001.85	0.684595	0.196039	0	0.000125303
2001.87	0.694673	0.196032	0	4.896e-05
2001.88	0.70477	0.196038	0	6.80457e-05
2001.89	0.715134	0.196034	0	4.896e-05
2001.91	0.725384	0.196036	0	-4.64685e-05
2001.92	0.735481	0.196039	0	1.07886e-05
2001.94	0.745368	0.196039	0	0.000144388
2001.95	0.755389	0.196025	0	0.000144388
2001.96	0.765047	0.196025	0	8.71314e-05
2001.98	0.774839	0.196029	0	0.000125303
2001.99	0.78465	0.196042	0	1.07886e-05
2002.01	0.794766	0.196041	0	6.80457e-05
2002.02	0.804997	0.196035	0	-2.73828e-05
2002.03	0.814693	0.196039	0	4.896e-05
2002.05	0.824523	0.196032	0	1.07886e-05
2002.06	0.834429	0.196039	0	6.80457e-05
2002.08	0.844603	0.196038	0	8.71314e-05
2002.09	0.854433	0.196038	0	0.000125303
2002.1	0.864206	0.196038	0	6.80457e-05
2002.12	0.874627	0.196031	0	-2.73828e-05
2002.13	0.884228	0.196044	0	4.896e-05
2002.14	0.894077	0.196036	0	2.98743e-05
2002.16	0.904518	0.19604	0	-8.29709e-06
2002.17	0.914558	0.196041	0	1.07886e-05
2002.19	0.924941	0.196039	0	-8.29709e-06
2002.2	0.935286	0.196045	0	-2.73828e-05
2002.22	0.945593	0.196039	0	2.98743e-05
2002.23	0.955805	0.196045	0	4.896e-05
2002.25	0.965635	0.196038	0	1.07886e-05
2002.26	0.975312	0.196034	0	0.000125303
2002.27	0.985448	0.196034	0	1.07886e-05
2002.29	0.99564	0.196039	0	0.000163474
2038.5	-0.0469044	0.196037	0	0.000125303
2038.51	-0.0359293	0.196039	0	2.98743e-05
2038.55	-0.026462	0.196026	0	1.07886e-05
2038.63	-0.0170329	0.196041	0	1.07886e-05
2038.75	-0.00760383	0.196033	0	2.98743e-05
2038.92	0.00165348	0.196033	0	2.98743e-05
2039.14	0.0109299	0.196036	0	-8.29709e-06
2039.48	0.020149	0.196041	0	-6.55542e-05
2040.02	0.0294254	0.196034	0	4.896e-05
2040.89	0.0386636	0.196035	0	0.000106217
2042.65	0.04815	0.19605	0	-2.73828e-05
2054.98	0.0574073	0.196032	0	2.98743e-05
2062.2	0.0666073	0.196036	0	-0.000103726
2065.19	0.0758837	0.196043	0	0.000125303
2066.31	0.0851029	0.196032	0	-8.29709e-06
2066.85	0.0943793	0.196035	0	8.71314e-05
2067.17	0.103579	0.196028	0	2.98743e-05
2067.39	0.112875	0.19604	0	4.896e-05
2067.56	0.122342	0.196041	0	4.896e-05
2067.69	0.131676	0.196034	0	0.000163474
2067.8	0.141009	0.196034	0	8.71314e-05
2067.9	0.150458	0.196032	0	0.000163474
2067.98	0.159963	0.196028	0	2.98743e-05
2068.07	0.169411	0.196036	0	0.000220731
2068.14	0.178688	0.196039	0	0.000106217
2068.22	0.188193	0.196036	0	2.98743e-05
2068.29	0.197718	0.196038	0	0.000125303
2068.37	0.20728	0.196029	0	-8.29709e-06
2068.43	0.216557	0.196034	0	0.000106217
2068.5	0.226138	0.196037	0	2.98743e-05
2068.56	0.235644	0.196037	0	8.71314e-05
2068.61	0.245035	0.196029	0	0.000106217
2068.67	0.25496	0.196036	0	2.98743e-05
2068.71	0.264351	0.196036	0	0.00018256
2068.75	0.274066	0.196043	0	8.71314e-05
2068.79	0.283896	0.196029	0	0.000106217
2068.83	0.293287	0.196034	0	1.07886e-05
2068.86	0.302736	0.196041	0	1.07886e-05
2068.89	0.312432	0.196026	0	4.896e-05
2068.92	0.321975	0.196041	0	-8.46399e-05
2068.95	0.331557	0.196034	0	-4.64685e-05
2068.97	0.341044	0.196041	0	4.896e-05
2069	0.350587	0.196034	0	6.80457e-05
2069.02	0.360112	0.19604	0	0.000106217
2069.04	0.370037	0.196038	0	1.07886e-05
2069.06	0.379733	0.196027	0	-8.29709e-06
2069.08	0.389392	0.196028	0	0.000106217
2069.1	0.399031	0.196032	0	0.000163474
2069.12	0.408956	0.196031	0	0.000163474
2069.14	0.418729	0.196042	0	0.000106217
2069.16	0.428597	0.196038	0	-2.73828e-05
2069.18	0.438656	0.196029	0	8.71314e-05
2069.19	0.448352	0.196039	0	-8.29709e-06
2069.21	0.457896	0.196035	0	6.80457e-05
2069.23	0.467439	0.196038	0	-6.55542e-05
2069.24	0.477059	0.196039	0	0.000106217
2069.26	0.486775	0.196038	0	0.00018256
2069.28	0.496528	0.196035	0	0.00018256
2069.29	0.506606	0.196043	0	6.80457e-05
2069.31	0.516093	0.196031	0	4.896e-05
2069.32	0.52577	0.196046	0	2.98743e-05
2069.34	0.535447	0.196036	0	8.71314e-05
2069.36	0.545124	0.196039	0	-8.29709e-06
2069.37	0.554954	0.196034	0	8.71314e-05
2069.39	0.564383	0.19604	0	-4.64685e-05
2069.4	0.574328	0.196034	0	0.000144388
2069.42	0.58412	0.196038	0	-6.55542e-05
2069.43	0.594159	0.196036	0	-8.29709e-06
2069.45	0.604142	0.196031	0	-2.73828e-05
2069.46	0.614258	0.196026	0	6.80457e-05
2069.48	0.624203	0.196033	0	8.71314e-05
2069.49	0.633918	0.196036	0	6.80457e-05
2069.51	0.643748	0.19604	0	-2.73828e-05
2069.52	0.653597	0.196034	0	-4.64685e-05
2069.53	0.66379	0.196024	0	6.80457e-05
2069.55	0.673543	0.196039	0	8.71314e-05
2069.56	0.683144	0.19604	0	0.000125303
2069.58	0.69326	0.196029	0	0.000163474
2069.59	0.703147	0.196032	0	2.98743e-05
2069.6	0.712863	0.196039	0	0.000163474
2069.62	0.722636	0.196043	0	4.896e-05
2069.63	0.732885	0.196035	0	0.00018256
2069.65	0.74283	0.196034	0	1.07886e-05
2069.66	0.752412	0.196036	0	2.98743e-05
2069.67	0.762642	0.196037	0	1.07886e-05
2069.69	0.772625	0.196031	0	-2.73828e-05
2069.7	0.782359	0.196038	0	8.71314e-05
2069.71	0.792113	0.196031	0	6.80457e-05
2069.73	0.802019	0.196035	0	0.000163474
2069.74	0.81183	0.196031	0	0.000163474
2069.76	0.821889	0.19602	0	4.896e-05
2069.77	0.831853	0.196035	0	0.000144388
2069.78	0.841568	0.196033	0	-8.29709e-06
2069.8	0.851455	0.196044	0	0.000125303
2069.81	0.861304	0.196039	0	6.80457e-05
2069.82	0.871421	0.196036	0	2.98743e-05
2069.84	0.881651	0.196039	0	6.80457e-05
2069.85	0.891787	0.196036	0	0.000125303
2069.86	0.90217	0.196039	0	0.000106217
2069.88	0.911962	0.196038	0	2.98743e-05
2069.89	0.922154	0.196037	0	6.80457e-05
2069.91	0.932252	0.196035	0	6.80457e-05
2069.92	0.942291	0.196036	0	-8.29709e-06
2069.93	0.95193	0.196039	0	2.98743e-05
2069.95	0.962066	0.196039	0	0.000239817
2069.96	0.971781	0.196033	0	4.896e-05
2069.98	0.981668	0.196033	0	-8.29709e-06
2069.99	0.991594	0.196036	0	1.07886e-05
2070	1.00074	0.19604	0	4.896e-05
2106.21	-0.0431252	0.196034	0	8.71314e-05
2106.22	-0.033238	0.196039	0	0.000125303
2106.28	-0.0236753	0.196038	0	1.07886e-05
2106.38	-0.0143225	0.196034	0	2.98743e-05
2106.52	-0.00487435	0.196044	0	4.896e-05
2106.71	0.00455474	0.196029	0	0.00018256
2106.99	0.0138693	0.196034	0	0.000125303
2107.4	0.0231266	0.196034	0	2.98743e-05
2108.04	0.0324603	0.196039	0	0.000163474
2109.1	0.0417558	0.196032	0	8.71314e-05
2111.1	0.0509558	0.196045	0	-8.29709e-06
2122.68	0.0601368	0.196036	0	8.71314e-05
2128.21	0.0693368	0.196041	0	8.71314e-05
2130.68	0.078575	0.196038	0	4.896e-05
2131.75	0.0879278	0.196036	0	-6.55542e-05
2132.25	0.097166	0.196039	0	2.98743e-05
2132.54	0.106557	0.196037	0	-4.64685e-05
2132.73	0.116101	0.196034	0	6.80457e-05
2132.88	0.125511	0.196043	0	1.07886e-05
2132.99	0.134901	0.196029	0	-8.29709e-06
2133.08	0.144579	0.196036	0	2.98743e-05
2133.17	0.153874	0.196038	0	6.80457e-05
2133.24	0.163418	0.196024	0	-2.73828e-05
2133.31	0.17298	0.196039	0	-6.55542e-05
2133.38	0.182352	0.196038	0	1.07886e-05
2133.44	0.191915	0.196047	0	-4.64685e-05
2133.51	0.201382	0.196035	0	6.80457e-05
2133.57	0.210811	0.196036	0	-8.29709e-06
2133.64	0.220374	0.196034	0	0.000106217
2133.7	0.230147	0.196038	0	1.07886e-05
2133.76	0.239824	0.196035	0	8.71314e-05
2133.82	0.249234	0.196043	0	0.000144388
2133.88	0.258835	0.196036	0	0.000125303
2133.93	0.268398	0.196044	0	2.98743e-05
2133.97	0.277884	0.196038	0	4.896e-05
2134.02	0.28737	0.19604	0	8.71314e-05
2134.06	0.297009	0.196041	0	6.80457e-05
2134.1	0.30661	0.196035	0	0.000144388
2134.13	0.316574	0.196029	0	0.000125303
2134.17	0.326346	0.196043	0	1.07886e-05
2134.2	0.335966	0.196039	0	0.000144388
2134.23	0.345472	0.196036	0	-8.46399e-05
2134.25	0.355302	0.196048	0	4.896e-05
2134.28	0.364845	0.196034	0	0.000106217
2134.3	0.374866	0.196032	0	0.000106217
2134.33	0.384448	0.196031	0	1.07886e-05
2134.35	0.39445	0.196032	0	0.000106217
2134.37	0.404738	0.196027	0	0.00018256
2134.39	0.414625	0.196045	0	-8.29709e-06
2134.41	0.424684	0.196037	0	-8.29709e-06
2134.43	0.434418	0.196029	0	4.896e-05
2134.45	0.443924	0.196038	0	2.98743e-05
2134.47	0.45341	0.196041	0	-6.55542e-05
2134.49	0.463431	0.196033	0	-2.73828e-05
2134.51	0.472917	0.196039	0	4.896e-05
2134.53	0.482518	0.196029	0	1.07886e-05
2134.54	0.492214	0.196031	0	2.98743e-05
2134.56	0.501701	0.196029	0	4.896e-05
2134.58	0.511473	0.196033	0	0.000106217
2134.6	0.521437	0.196033	0	-6.55542e-05
2134.61	0.531229	0.19603	0	6.80457e-05
2134.63	0.541135	0.196034	0	8.71314e-05
2134.65	0.551003	0.196036	0	2.98743e-05
2134.66	0.560566	0.196024	0	4.896e-05
2134.68	0.570281	0.196037	0	2.98743e-05
2134.69	0.580149	0.196039	0	-8.29709e-06
2134.71	0.590056	0.196032	0	1.07886e-05
2134.73	0.599637	0.196034	0	2.98743e-05
2134.74	0.609296	0.196031	0	2.98743e-05
2134.76	0.618915	0.196034	0	0.000125303
2134.77	0.628745	0.196032	0	-8.29709e-06
2134.79	0.63869	0.196034	0	4.896e-05
2134.8	0.648195	0.196038	0	0.000163474
2134.81	0.657949	0.196035	0	0.000144388
2134.83	0.667664	0.196028	0	0.000125303
2134.84	0.677532	0.196043	0	2.98743e-05
2134.86	0.687534	0.196039	0	-8.29709e-06
2134.87	0.697269	0.196036	0	0.000125303
2134.89	0.706698	0.196034	0	-8.29709e-06
2134.9	0.716757	0.196035	0	8.71314e-05
2134.91	0.726816	0.196032	0	-2.73828e-05
2134.93	0.736474	0.196029	0	0.000106217
2134.94	0.746437	0.196032	0	0.000144388
2134.96	0.756668	0.196027	0	8.71314e-05
2134.97	0.766441	0.196038	0	0.000125303
2134.98	0.776462	0.196027	0	6.80457e-05
2135	0.786387	0.196045	0	0.000106217
2135.01	0.796312	0.196033	0	2.98743e-05
2135.03	0.806142	0.196033	0	-8.29709e-06
2135.04	0.816163	0.196041	0	4.896e-05
2135.05	0.826031	0.196031	0	0.000106217
2135.07	0.836033	0.196039	0	8.71314e-05
2135.08	0.846054	0.196038	0	6.80457e-05
2135.09	0.856303	0.196038	0	-4.64685e-05
2135.11	0.866095	0.196041	0	6.80457e-05
2135.12	0.875906	0.196029	0	2.98743e-05
2135.14	0.885564	0.196032	0	0.000106217
2135.15	0.895547	0.196037	0	8.71314e-05
2135.16	0.905472	0.196046	0	6.80457e-05
2135.18	0.915398	0.196031	0	1.07886e-05
2135.19	0.92538	0.196031	0	4.896e-05
2135.2	0.935115	0.196033	0	0.000163474
2135.22	0.944925	0.196036	0	0.000125303
2135.23	0.955404	0.196039	0	-8.29709e-06
2135.25	0.965043	0.196032	0	-8.29709e-06
2135.26	0.974797	0.196038	0	0.000106217
2135.28	0.985047	0.196031	0	2.98743e-05
2135.29	0.994953	0.196034	0	0.000163474
2171.5	-0.0529033	0.196032	0	-0.00040363
2171.51	-0.0403957	0.196035	0	8.71314e-05
2171.53	-0.0309093	0.19604	0	0.000106217
2171.61	-0.0213848	0.196038	0	4.896e-05
2171.72	-0.0119939	0.196032	0	-4.64685e-05
2171.87	-0.00258389	0.196035	0	1.07886e-05
2172.09	0.0067116	0.196039	0	6.80457e-05
2172.4	0.0160071	0.196033	0	2.98743e-05
2172.89	0.0254553	0.196041	0	-0.000122811
2173.62	0.0347698	0.196035	0	8.71314e-05
2174.77	0.043989	0.196038	0	1.07886e-05
2176.87	0.0532272	0.196036	0	8.71314e-05
2185.5	0.0624654	0.196043	0	-2.73828e-05
2191.59	0.0716655	0.196031	0	0.000125303
2193.84	0.0808846	0.196036	0	8.71314e-05
2194.9	0.0900655	0.196031	0	2.98743e-05
2195.43	0.0994183	0.19604	0	0.000144388
2195.73	0.108733	0.19604	0	-2.73828e-05
2195.92	0.118105	0.196042	0	2.98743e-05
2196.06	0.127438	0.196035	0	0.000144388
2196.18	0.136925	0.196032	0	8.71314e-05
2196.27	0.146354	0.196037	0	6.80457e-05
2196.35	0.155687	0.196033	0	-8.29709e-06
2196.43	0.165174	0.196027	0	4.896e-05
2196.5	0.174603	0.196036	0	0.000144388
2196.58	0.184013	0.19604	0	-2.73828e-05
2196.64	0.193289	0.196036	0	2.98743e-05
2196.71	0.202947	0.196031	0	6.80457e-05
2196.78	0.212281	0.19604	0	2.98743e-05
2196.85	0.221863	0.196037	0	6.80457e-05
2196.92	0.231292	0.196039	0	0.000125303
2196.98	0.240645	0.196037	0	0.000163474
2197.04	0.250169	0.196039	0	6.80457e-05
2197.1	0.25956	0.196032	0	-8.29709e-06
2197.16	0.26918	0.196027	0	-8.29709e-06
2197.21	0.278495	0.19603	0	-8.46399e-05
2197.26	0.288153	0.196034	0	4.896e-05
2197.31	0.297677	0.196043	0	0.000125303
2197.36	0.307183	0.196036	0	0.000125303
2197.4	0.316803	0.196032	0	-8.29709e-06
2197.44	0.326633	0.196046	0	-8.29709e-06
2197.48	0.3361	0.196035	0	1.07886e-05
2197.51	0.34572	0.196038	0	1.07886e-05
2197.55	0.355092	0.196039	0	-8.29709e-06
2197.58	0.364578	0.196038	0	1.07886e-05
2197.61	0.374255	0.19604	0	8.71314e-05
2197.64	0.383933	0.196029	0	2.98743e-05
2197.67	0.393686	0.196032	0	-8.29709e-06
2197.69	0.403153	0.196046	0	2.98743e-05
2197.72	0.412888	0.196035	0	4.896e-05
2197.74	0.422508	0.196034	0	6.80457e-05
2197.77	0.431956	0.196034	0	0.000106217
2197.79	0.441538	0.196032	0	2.98743e-05
2197.81	0.451043	0.196036	0	2.98743e-05
2197.84	0.461026	0.196038	0	0.000144388
2197.86	0.470989	0.196026	0	-2.73828e-05
2197.88	0.480896	0.196032	0	-2.73828e-05
2197.9	0.490344	0.19604	0	8.71314e-05
2197.92	0.500136	0.196038	0	-8.29709e-06
2197.94	0.509756	0.196031	0	1.07886e-05
2197.96	0.519815	0.196042	0	0.000144388
2197.97	0.529396	0.196038	0	1.07886e-05
2197.99	0.539265	0.196031	0	2.98743e-05
2198.01	0.549094	0.196029	0	-6.55542e-05
2198.03	0.558924	0.19603	0	0.000163474
2198.05	0.568582	0.196032	0	8.71314e-05
2198.06	0.578641	0.196043	0	8.71314e-05
2198.08	0.58849	0.196038	0	1.07886e-05
2198.1	0.598206	0.196027	0	8.71314e-05
2198.11	0.607769	0.196036	0	2.98743e-05
2198.13	0.61756	0.196033	0	2.98743e-05
2198.15	0.628096	0.196043	0	2.98743e-05
2198.16	0.637926	0.196039	0	0.000125303
2198.18	0.647642	0.196041	0	-2.73828e-05
2198.19	0.657605	0.196041	0	0.000125303
2198.21	0.667264	0.196025	0	-8.29709e-06
2198.22	0.676883	0.196025	0	0.00018256
2198.24	0.686503	0.196032	0	6.80457e-05
2198.25	0.696391	0.196033	0	4.896e-05
2198.27	0.706125	0.196029	0	-4.64685e-05
2198.28	0.715631	0.196029	0	-4.64685e-05
2198.3	0.725136	0.196039	0	0.000106217
2198.31	0.73489	0.196041	0	8.71314e-05
2198.33	0.744681	0.196037	0	6.80457e-05
2198.34	0.754549	0.196045	0	0.000144388
2198.35	0.764322	0.196039	0	-2.73828e-05
2198.37	0.773866	0.196035	0	0.000125303
2198.38	0.783696	0.196044	0	4.896e-05
2198.4	0.793602	0.196031	0	-4.64685e-05
2198.41	0.804138	0.19604	0	6.80457e-05
2198.43	0.814159	0.196034	0	-4.64685e-05
2198.44	0.824275	0.196032	0	0.000125303
2198.45	0.834582	0.196031	0	0.000125303
2198.47	0.844565	0.196038	0	-8.29709e-06
2198.48	0.854662	0.196042	0	0.000163474
2198.5	0.864587	0.196037	0	4.896e-05
2198.51	0.874799	0.196048	0	1.07886e-05
2198.53	0.884839	0.196039	0	2.98743e-05
2198.54	0.895089	0.196032	0	-2.73828e-05
2198.55	0.904823	0.196031	0	0.000144388
2198.57	0.914844	0.196046	0	-6.55542e-05
2198.58	0.924998	0.196041	0	0.000106217
2198.6	0.93479	0.196038	0	0.000106217
2198.61	0.944811	0.196032	0	0.000106217
2198.62	0.954679	0.196039	0	-0.000103726
2198.64	0.964948	0.196035	0	-8.29709e-06
2198.65	0.974873	0.196031	0	0.00018256
2198.67	0.984799	0.196041	0	1.07886e-05
2198.68	0.994858	0.196035	0	4.896e-05
2234.9	-0.0544267	0.196038	0	-0.00096483
2234.9	-0.0417127	0.196032	0	-8.46399e-05
2234.92	-0.0319019	0.196041	0	8.71314e-05
2234.99	-0.0224537	0.19603	0	-2.73828e-05
2235.1	-0.0131964	0.196034	0	-8.29709e-06
2235.25	-0.00378638	0.196033	0	0.000144388
2235.46	0.00562362	0.196037	0	4.896e-05
2235.78	0.0149764	0.196034	0	4.896e-05
2236.24	0.0242909	0.196038	0	4.896e-05
2236.93	0.0336246	0.196041	0	8.71314e-05
2237.99	0.042901	0.196034	0	0.000106217
2239.73	0.0521774	0.196027	0	4.896e-05
2243.82	0.0614347	0.196034	0	6.80457e-05
2252.31	0.0705966	0.196032	0	4.896e-05
2254.89	0.0799684	0.196035	0	0.00018256
2256.29	0.0891684	0.196039	0	0.000163474
2257.02	0.0984448	0.196034	0	-6.55542e-05
2257.41	0.107702	0.196034	0	-2.73828e-05
2257.65	0.117093	0.196042	0	2.98743e-05
2257.82	0.126503	0.196037	0	4.896e-05
2257.96	0.135875	0.196039	0	0.000106217
2258.07	0.145132	0.196034	0	8.71314e-05
2258.17	0.154504	0.196043	0	4.896e-05
2258.26	0.16378	0.196039	0	0.000297074
2258.35	0.173229	0.196034	0	0.00018256
2258.43	0.182429	0.196024	0	0.000144388
2258.51	0.191762	0.196041	0	8.71314e-05
2258.59	0.201115	0.196041	0	2.98743e-05
2258.68	0.210735	0.196034	0	0.000106217
2258.76	0.220183	0.196032	0	0.000144388
2258.84	0.229498	0.196036	0	-8.29709e-06
2258.91	0.238946	0.196029	0	0.000125303
2258.99	0.248566	0.196036	0	1.07886e-05
2259.07	0.257785	0.196035	0	-8.29709e-06
2259.14	0.267176	0.196036	0	0.000144388
2259.21	0.276662	0.196036	0	2.98743e-05
2259.27	0.286263	0.196032	0	-0.000103726
2259.33	0.29554	0.196033	0	-4.64685e-05
2259.38	0.305064	0.196038	0	8.71314e-05
2259.44	0.314493	0.196036	0	-8.29709e-06
2259.49	0.32398	0.196032	0	1.07886e-05
2259.54	0.333771	0.196037	0	4.896e-05
2259.58	0.343258	0.196039	0	0.000220731
2259.62	0.352801	0.196035	0	6.80457e-05
2259.66	0.362326	0.196035	0	8.71314e-05
2259.7	0.371774	0.196032	0	2.98743e-05
2259.74	0.38126	0.196044	0	0.000163474
2259.77	0.390899	0.196041	0	1.07886e-05
2259.8	0.400367	0.196036	0	0.000125303
2259.84	0.409834	0.196034	0	-4.64685e-05
2259.87	0.419549	0.196035	0	0.000125303
2259.89	0.429379	0.196031	0	2.98743e-05
2259.92	0.439266	0.196038	0	-8.29709e-06
2259.95	0.449077	0.196043	0	0.000144388
2259.97	0.458735	0.196034	0	6.80457e-05
2260	0.468336	0.196038	0	8.71314e-05
2260.02	0.477937	0.196028	0	-8.29709e-06
2260.04	0.487557	0.196034	0	-8.29709e-06
2260.07	0.497101	0.196034	0	2.98743e-05
2260.09	0.506816	0.196039	0	-4.64685e-05
2260.11	0.516513	0.196029	0	-4.64685e-05
2260.13	0.525961	0.196031	0	-2.73828e-05
2260.15	0.535657	0.196044	0	0.000106217
2260.17	0.545372	0.196033	0	0.000106217
2260.19	0.555221	0.196035	0	4.896e-05
2260.2	0.565051	0.19604	0	1.07886e-05
2260.22	0.575263	0.196041	0	1.07886e-05
2260.24	0.584883	0.196033	0	4.896e-05
2260.26	0.594827	0.196033	0	0.000106217
2260.28	0.604657	0.196034	0	0.000201646
2260.29	0.614296	0.196032	0	-4.64685e-05
2260.31	0.624031	0.196042	0	0.000106217
2260.33	0.633975	0.196033	0	0.000163474
2260.34	0.64371	0.196032	0	1.07886e-05
2260.36	0.653673	0.196033	0	0.000125303
2260.38	0.663561	0.196027	0	4.896e-05
2260.39	0.6736	0.196044	0	-6.55542e-05
2260.41	0.683469	0.196027	0	4.896e-05
2260.42	0.693165	0.196044	0	2.98743e-05
2260.44	0.702842	0.196027	0	0.000201646
2260.46	0.712806	0.196034	0	8.71314e-05
2260.47	0.722731	0.196035	0	8.71314e-05
2260.49	0.732542	0.196038	0	2.98743e-05
2260.5	0.742257	0.196031	0	0.000125303
2260.52	0.751973	0.196036	0	2.98743e-05
2260.53	0.761803	0.196038	0	8.71314e-05
2260.54	0.771613	0.196033	0	2.98743e-05
2260.56	0.781482	0.196037	0	0.000163474
2260.57	0.790987	0.196039	0	0.000144388
2260.59	0.801084	0.196035	0	6.80457e-05
2260.6	0.811181	0.196045	0	8.71314e-05
2260.62	0.820725	0.196029	0	-8.29709e-06
2260.63	0.830631	0.196031	0	0.000106217
2260.64	0.839965	0.196033	0	6.80457e-05
2260.66	0.849718	0.196034	0	-6.55542e-05
2260.67	0.859396	0.196042	0	0.000220731
2260.69	0.869302	0.196034	0	-4.64685e-05
2260.7	0.878884	0.196038	0	6.80457e-05
2260.71	0.888599	0.196034	0	4.896e-05
2260.73	0.898391	0.196032	0	-2.73828e-05
2260.74	0.908163	0.196031	0	2.98743e-05
2260.76	0.918222	0.196034	0	0.000163474
2260.77	0.928167	0.196029	0	-8.29709e-06
2260.78	0.938035	0.196036	0	-4.64685e-05
2260.8	0.947884	0.196035	0	-2.73828e-05
2260.81	0.957828	0.196034	0	1.07886e-05
2260.83	0.967639	0.196034	0	-6.55542e-05
2260.84	0.97766	0.196034	0	0.000106217
2260.86	0.987948	0.196037	0	-2.73828e-05
2260.87	0.998389	0.196035	0	4.896e-05
2297.08	-0.0501874	0.196032	0	-4.64685e-05
2297.09	-0.0400139	0.196039	0	1.07886e-05
2297.12	-0.0300504	0.196037	0	1.07886e-05
2297.2	-0.0205259	0.196032	0	0.000106217
2297.31	-0.0113449	0.196041	0	0.000125303
2297.47	-0.00204944	0.196036	0	4.896e-05
2297.69	0.00732239	0.196038	0	0.000106217
2298.03	0.0166942	0.196038	0	2.98743e-05
2298.52	0.0259706	0.196036	0	-4.64685e-05
2299.26	0.0352088	0.19604	0	4.896e-05
2300.4	0.0445998	0.196044	0	2.98743e-05
2302.19	0.0539716	0.196044	0	0.000125303
2305.89	0.0632098	0.196028	0	2.98743e-05
2312.82	0.0725053	0.196034	0	-4.64685e-05
2315.36	0.0817053	0.196032	0	-0.000103726
2316.78	0.0909817	0.196036	0	0.000163474
2317.59	0.100239	0.196039	0	-8.29709e-06
2318.04	0.109515	0.196032	0	-6.55542e-05
2318.32	0.118715	0.196034	0	6.80457e-05
2318.54	0.12803	0.196029	0	-8.29709e-06
2318.71	0.137326	0.196032	0	0.000125303
2318.85	0.14664	0.196037	0	6.80457e-05
2318.98	0.15605	0.196033	0	-8.29709e-06
2319.1	0.165384	0.196025	0	6.80457e-05
2319.21	0.174889	0.196031	0	-2.73828e-05
2319.33	0.184452	0.196041	0	6.80457e-05
2319.44	0.194282	0.19604	0	0.000106217
2319.55	0.203692	0.196029	0	8.71314e-05
2319.66	0.21314	0.196036	0	0.000106217
2319.76	0.222512	0.196026	0	-8.29709e-06
2319.86	0.232113	0.196037	0	1.07886e-05
2319.96	0.241656	0.196035	0	-0.000141897
2320.06	0.2512	0.196036	0	0.000106217
2320.15	0.260476	0.196038	0	-0.000122811
2320.23	0.26981	0.196031	0	-6.55542e-05
2320.31	0.279239	0.196037	0	1.07886e-05
2320.39	0.288745	0.196041	0	0.000106217
2320.46	0.298155	0.196038	0	8.71314e-05
2320.53	0.307698	0.196036	0	1.07886e-05
2320.59	0.317261	0.196039	0	0.000125303
2320.65	0.326652	0.196035	0	2.98743e-05
2320.71	0.336138	0.196031	0	1.07886e-05
2320.76	0.345548	0.196029	0	-2.73828e-05
2320.81	0.355187	0.196041	0	1.07886e-05
2320.86	0.364807	0.196032	0	-0.000103726
2320.9	0.374503	0.196035	0	0.000144388
2320.95	0.384333	0.196034	0	6.80457e-05
2320.99	0.393934	0.196034	0	1.07886e-05
2321.02	0.403421	0.19604	0	0.000144388
2321.06	0.413041	0.196039	0	2.98743e-05
2321.09	0.422947	0.196039	0	8.71314e-05
2321.12	0.432739	0.196036	0	0.000106217
2321.15	0.442569	0.196032	0	0.000106217
2321.18	0.452208	0.19604	0	-4.64685e-05
2321.21	0.462057	0.196036	0	2.98743e-05
2321.24	0.471658	0.196041	0	6.80457e-05
2321.26	0.481258	0.196032	0	6.80457e-05
2321.28	0.490878	0.196046	0	6.80457e-05
2321.31	0.500613	0.196034	0	0.000106217
2321.33	0.510004	0.196048	0	6.80457e-05
2321.35	0.519586	0.196042	0	-2.73828e-05
2321.37	0.529377	0.196041	0	1.07886e-05
2321.39	0.538959	0.196036	0	-2.73828e-05
2321.41	0.548751	0.196027	0	6.80457e-05
2321.43	0.558294	0.196034	0	-6.55542e-05
2321.45	0.567838	0.196035	0	-2.73828e-05
2321.47	0.577554	0.196038	0	-2.73828e-05
2321.49	0.58746	0.196034	0	2.98743e-05
2321.51	0.59729	0.196039	0	2.98743e-05
2321.53	0.606967	0.196032	0	6.80457e-05
2321.54	0.61674	0.196029	0	6.80457e-05
2321.56	0.626779	0.196032	0	6.80457e-05
2321.58	0.636686	0.196028	0	-6.55542e-05
2321.6	0.646554	0.196035	0	0.000125303
2321.61	0.656384	0.196034	0	0.000106217
2321.63	0.666156	0.196034	0	8.71314e-05
2321.65	0.675872	0.196028	0	4.896e-05
2321.66	0.685606	0.196039	0	1.07886e-05
2321.68	0.69536	0.196025	0	0.000125303
2321.7	0.705533	0.196037	0	1.07886e-05
2321.71	0.714886	0.196041	0	0.000144388
2321.73	0.724773	0.196041	0	2.98743e-05
2321.74	0.734508	0.196032	0	1.07886e-05
2321.76	0.744166	0.196037	0	0.000106217
2321.77	0.754626	0.196034	0	6.80457e-05
2321.79	0.764589	0.196031	0	4.896e-05
2321.8	0.774152	0.196039	0	4.896e-05
2321.82	0.784115	0.196041	0	8.71314e-05
2321.83	0.793907	0.196034	0	8.71314e-05
2321.85	0.803947	0.196043	0	-4.64685e-05
2321.86	0.814178	0.196034	0	4.896e-05
2321.88	0.823951	0.196024	0	0.000125303
2321.89	0.833914	0.196039	0	6.80457e-05
2321.91	0.843629	0.196031	0	-8.29709e-06
2321.92	0.853307	0.196039	0	2.98743e-05
2321.94	0.863537	0.196038	0	1.07886e-05
2321.95	0.873329	0.196027	0	1.07886e-05
2321.97	0.883541	0.196032	0	-2.73828e-05
2321.98	0.893142	0.196037	0	2.98743e-05
2321.99	0.902724	0.196034	0	2.98743e-05
2322.01	0.912477	0.196035	0	2.98743e-05
2322.02	0.921944	0.196028	0	-8.29709e-06
2322.04	0.931832	0.196037	0	-8.29709e-06
2322.05	0.941871	0.196032	0	1.07886e-05
2322.07	0.951663	0.196034	0	-4.64685e-05
2322.08	0.962104	0.196032	0	0.000106217
2322.1	0.971953	0.196031	0	1.07886e-05
2322.11	0.981687	0.196029	0	8.71314e-05
2322.13	0.99146	0.19604	0	8.71314e-05
2322.14	1.00066	0.196035	0	2.98743e-05
2358.35	-0.0470762	0.196034	0	6.80457e-05
2358.36	-0.0365782	0.196036	0	6.80457e-05
2358.4	-0.0268438	0.196039	0	0.000163474
2358.48	-0.0173192	0.19603	0	6.80457e-05
2358.61	-0.00813827	0.196032	0	4.896e-05
2358.79	0.00129082	0.196032	0	4.896e-05
2359.05	0.0107199	0.196039	0	2.98743e-05
2359.44	0.0200345	0.196036	0	8.71314e-05
2360.03	0.0293109	0.196029	0	8.71314e-05
2360.9	0.0386827	0.196038	0	0.000106217
2362.22	0.0480736	0.196035	0	-8.29709e-06
2364.31	0.0573882	0.196029	0	2.98743e-05
2368.37	0.0666073	0.196039	0	0.000125303
2373.61	0.0758456	0.196039	0	-4.64685e-05
2375.77	0.0850074	0.196036	0	1.07886e-05
2377.15	0.0942647	0.196034	0	0.000220731
2377.99	0.103503	0.196036	0	-2.73828e-05
2378.47	0.112741	0.196032	0	6.80457e-05
2378.82	0.122056	0.196029	0	-8.29709e-06
2379.07	0.131389	0.196037	0	2.98743e-05
2379.28	0.140761	0.196032	0	8.71314e-05
2379.46	0.150114	0.196034	0	0.000201646
2379.62	0.159429	0.19603	0	-2.73828e-05
2379.77	0.168934	0.196034	0	6.80457e-05
2379.91	0.178153	0.196034	0	4.896e-05
2380.05	0.187353	0.196043	0	8.71314e-05
2380.18	0.196954	0.196039	0	0.00018256
2380.32	0.206421	0.196035	0	8.71314e-05
2380.45	0.215793	0.196031	0	-4.64685e-05
2380.58	0.225108	0.196032	0	0.000144388
2380.71	0.234365	0.196033	0	-0.000122811
2380.83	0.243813	0.196038	0	0.000106217
2380.94	0.253395	0.196033	0	8.71314e-05
2381.04	0.2629	0.19604	0	8.71314e-05
2381.14	0.272177	0.19603	0	2.98743e-05
2381.23	0.28151	0.196038	0	-4.64685e-05
2381.31	0.290921	0.19603	0	6.80457e-05
2381.39	0.300388	0.19603	0	6.80457e-05
2381.47	0.309798	0.196031	0	0.000125303
2381.54	0.31938	0.196037	0	0.000125303
2381.6	0.328866	0.19604	0	0.000220731
2381.66	0.338257	0.196033	0	0.000125303
2381.72	0.347667	0.196039	0	6.80457e-05
2381.77	0.357077	0.196039	0	0.000144388
2381.82	0.366563	0.196034	0	-8.29709e-06
2381.87	0.376164	0.196027	0	1.07886e-05
2381.91	0.385765	0.196032	0	-2.73828e-05
2381.95	0.395194	0.196034	0	-8.29709e-06
2381.99	0.404852	0.196032	0	8.71314e-05
2382.03	0.414377	0.19604	0	8.71314e-05
2382.06	0.424149	0.196033	0	6.80457e-05
2382.1	0.433636	0.196032	0	4.896e-05
2382.13	0.443218	0.196029	0	0.000106217
2382.16	0.452857	0.19604	0	8.71314e-05
2382.18	0.462801	0.196034	0	-2.73828e-05
2382.21	0.472745	0.196037	0	0.00018256
2382.24	0.482556	0.196038	0	2.98743e-05
2382.26	0.492024	0.196032	0	0.000106217
2382.29	0.501644	0.196032	0	1.07886e-05
2382.31	0.511607	0.196034	0	8.71314e-05
2382.33	0.521322	0.196034	0	0.000125303
2382.35	0.530942	0.196032	0	-8.29709e-06
2382.37	0.540562	0.196036	0	0.000125303
2382.4	0.55024	0.196032	0	8.71314e-05
2382.42	0.559783	0.19604	0	-8.29709e-06
2382.44	0.569957	0.196034	0	0.000201646
2382.46	0.579787	0.196025	0	2.98743e-05
2382.47	0.589636	0.196039	0	-0.000103726
2382.49	0.599618	0.196035	0	0.000106217
2382.51	0.609448	0.196034	0	1.07886e-05
2382.53	0.61924	0.196037	0	1.07886e-05
2382.55	0.62907	0.196031	0	-6.55542e-05
2382.57	0.639282	0.196036	0	1.07886e-05
2382.59	0.649665	0.196031	0	4.896e-05
2382.6	0.659304	0.196038	0	-8.29709e-06
2382.62	0.669153	0.196036	0	0.000106217
2382.64	0.679384	0.19604	0	2.98743e-05
2382.65	0.689347	0.19603	0	-8.29709e-06
2382.67	0.699216	0.196033	0	1.07886e-05
2382.69	0.709179	0.196032	0	2.98743e-05
2382.7	0.719009	0.19603	0	0.000201646
2382.72	0.728858	0.196032	0	6.80457e-05
2382.73	0.738879	0.196036	0	0.000201646
2382.75	0.748804	0.196026	0	1.07886e-05
2382.77	0.758653	0.19603	0	8.71314e-05
2382.78	0.768598	0.196028	0	-8.29709e-06
2382.8	0.778599	0.196036	0	0.000144388
2382.81	0.788467	0.196033	0	6.80457e-05
2382.83	0.798297	0.196038	0	6.80457e-05
2382.84	0.808165	0.196044	0	-2.73828e-05
2382.86	0.818396	0.196036	0	-8.46399e-05
2382.87	0.828131	0.196036	0	0.000106217
2382.89	0.83756	0.196035	0	1.07886e-05
2382.9	0.847371	0.196035	0	0.000144388
2382.92	0.85743	0.196031	0	-8.29709e-06
2382.93	0.866992	0.196029	0	0.000106217
2382.94	0.877013	0.196032	0	4.896e-05
2382.96	0.887358	0.196032	0	-6.55542e-05
2382.97	0.897055	0.196031	0	0.000163474
2382.99	0.907209	0.196031	0	2.98743e-05
2383	0.916867	0.196027	0	-4.64685e-05
2383.02	0.926468	0.196033	0	1.07886e-05
2383.03	0.936451	0.196039	0	1.07886e-05
2383.05	0.946223	0.196037	0	-8.29709e-06
2383.06	0.956187	0.19604	0	0.000106217
2383.08	0.966036	0.196035	0	-4.64685e-05
2383.09	0.97577	0.196039	0	1.07886e-05
2383.11	0.985333	0.196034	0	4.896e-05
2383.12	0.995182	0.196034	0	-2.73828e-05
2419.34	-0.0542721	0.196038	0	1.07886e-05
2419.34	-0.044175	0.196034	0	8.71314e-05
2419.35	-0.0344786	0.196032	0	0.000106217
2419.39	-0.025145	0.196031	0	4.896e-05
2419.48	-0.0158304	0.19603	0	8.71314e-05
2419.61	-0.00649677	0.196039	0	0.000106217
2419.8	0.00291324	0.196031	0	8.71314e-05
2420.07	0.0121324	0.196034	0	2.98743e-05
2420.49	0.0214851	0.196039	0	4.896e-05
2421.1	0.0307424	0.196038	0	0.000163474
2422.02	0.0399425	0.196032	0	6.80457e-05
2423.35	0.0491234	0.196036	0	2.98743e-05
2425.4	0.0583235	0.196032	0	6.80457e-05
2428.92	0.0675044	0.196041	0	0.000163474
2433.21	0.0767808	0.196039	0	-4.64685e-05
2435.41	0.0860572	0.196033	0	2.98743e-05
2436.8	0.0952573	0.196039	0	0.000125303
2437.66	0.104572	0.19603	0	1.07886e-05
2438.24	0.113848	0.196037	0	0.00018256
2438.64	0.123144	0.196029	0	4.896e-05
2438.93	0.132382	0.196042	0	4.896e-05
2439.17	0.141658	0.196037	0	-6.55542e-05
2439.4	0.151145	0.196033	0	4.896e-05
2439.61	0.160459	0.196041	0	0.000144388
2439.81	0.16985	0.196032	0	-4.64685e-05
2439.99	0.179279	0.196037	0	0.000144388
2440.17	0.188727	0.196034	0	6.80457e-05
2440.33	0.197966	0.196039	0	0.000106217
2440.48	0.207242	0.196034	0	0.000125303
2440.63	0.21669	0.19604	0	1.07886e-05
2440.77	0.226291	0.196035	0	6.80457e-05
2440.9	0.23572	0.196035	0	0.000125303
2441.03	0.245226	0.19604	0	-4.64685e-05
2441.14	0.254559	0.196037	0	-8.29709e-06
2441.25	0.26395	0.196032	0	-6.55542e-05
2441.36	0.273379	0.19604	0	0.000106217
2441.45	0.282694	0.196035	0	2.98743e-05
2441.54	0.292123	0.196036	0	0.000125303
2441.63	0.301476	0.196025	0	4.896e-05
2441.71	0.311	0.196031	0	-6.55542e-05
2441.78	0.320372	0.196034	0	2.98743e-05
2441.85	0.32982	0.196031	0	-6.55542e-05
2441.92	0.339421	0.196038	0	8.71314e-05
2441.98	0.34885	0.196032	0	-4.64685e-05
2442.03	0.358394	0.196036	0	0.000144388
2442.09	0.368014	0.196027	0	2.98743e-05
2442.13	0.377577	0.196041	0	0.000106217
2442.18	0.387216	0.196032	0	0.000201646
2442.22	0.396664	0.196038	0	0.000106217
2442.26	0.406207	0.196026	0	4.896e-05
2442.3	0.415656	0.196038	0	4.896e-05
2442.34	0.425314	0.196037	0	0.000106217
2442.37	0.435163	0.196038	0	4.896e-05
2442.4	0.444554	0.196041	0	0.000144388
2442.43	0.454135	0.196043	0	-8.29709e-06
2442.46	0.463679	0.196029	0	1.07886e-05
2442.49	0.473356	0.19603	0	4.896e-05
2442.52	0.483014	0.196038	0	0.000125303
2442.54	0.492844	0.196034	0	-6.55542e-05
2442.57	0.502502	0.196032	0	-4.64685e-05
2442.59	0.511855	0.196034	0	4.896e-05
2442.62	0.521647	0.196032	0	6.80457e-05
2442.64	0.531553	0.196032	0	8.71314e-05
2442.66	0.541154	0.19604	0	2.98743e-05
2442.68	0.550965	0.196036	0	6.80457e-05
2442.7	0.560509	0.196029	0	8.71314e-05
2442.72	0.570262	0.196027	0	0.00018256
2442.74	0.579901	0.196036	0	-2.73828e-05
2442.76	0.589655	0.196033	0	6.80457e-05
2442.78	0.599313	0.196039	0	8.71314e-05
2442.8	0.609047	0.196027	0	0.000125303
2442.82	0.618839	0.196038	0	0.000106217
2442.84	0.628364	0.196034	0	8.71314e-05
2442.86	0.638175	0.196036	0	1.07886e-05
2442.88	0.648004	0.196041	0	2.98743e-05
2442.9	0.657644	0.196032	0	8.71314e-05
2442.91	0.667435	0.196041	0	2.98743e-05
2442.93	0.677227	0.196038	0	-8.29709e-06
2442.95	0.686981	0.196029	0	2.98743e-05
2442.97	0.696849	0.196039	0	0.000125303
2442.98	0.70706	0.196031	0	0.000163474
2443	0.716909	0.196036	0	-8.29709e-06
2443.02	0.726568	0.196036	0	-2.73828e-05
2443.03	0.736455	0.196037	0	1.07886e-05
2443.05	0.746132	0.196035	0	0.000125303
2443.06	0.755656	0.196038	0	0.000125303
2443.08	0.765486	0.196032	0	1.07886e-05
2443.1	0.775297	0.196031	0	1.07886e-05
2443.11	0.784955	0.196034	0	0.000106217
2443.13	0.79448	0.196031	0	-2.73828e-05
2443.14	0.8041	0.196039	0	8.71314e-05
2443.16	0.814407	0.196035	0	-2.73828e-05
2443.17	0.82418	0.196031	0	-2.73828e-05
2443.19	0.834353	0.196035	0	4.896e-05
2443.2	0.844374	0.196043	0	-0.000103726
2443.22	0.854395	0.196034	0	1.07886e-05
2443.24	0.864492	0.19603	0	6.80457e-05
2443.25	0.874379	0.196043	0	-0.000122811
2443.27	0.88461	0.196029	0	-6.55542e-05
2443.28	0.89465	0.196033	0	0.000125303
2443.3	0.904041	0.196035	0	0.000106217
2443.31	0.913985	0.196036	0	2.98743e-05
2443.33	0.923758	0.196031	0	-2.73828e-05
2443.34	0.933588	0.196029	0	4.896e-05
2443.36	0.943456	0.196025	0	-2.73828e-05
2443.37	0.953362	0.196032	0	0.000125303
2443.39	0.963116	0.196039	0	-4.64685e-05
2443.4	0.972888	0.196027	0	-4.64685e-05
2443.42	0.982871	0.196032	0	-4.64685e-05
2443.43	0.992529	0.196036	0	0.000125303
2443.45	1.00097	0.196029	0	-4.64685e-05
2479.66	-0.0448048	0.196041	0	-4.64685e-05
2479.67	-0.0349367	0.196027	0	1.07886e-05
2479.7	-0.025355	0.196036	0	0.000297074
2479.79	-0.0157922	0.196035	0	-2.73828e-05
2479.92	-0.00640133	0.196041	0	-4.64685e-05
2480.1	0.00293232	0.196038	0	2.98743e-05
2480.4	0.0124378	0.196041	0	1.07886e-05
2480.83	0.0219241	0.196038	0	6.80457e-05
2481.5	0.0312769	0.196033	0	0.000239817
2482.46	0.0405723	0.196031	0	1.07886e-05
2483.85	0.0498869	0.196039	0	4.896e-05
2485.94	0.059087	0.196038	0	4.896e-05
2489.11	0.0683061	0.196034	0	0.000106217
2492.53	0.0774298	0.196041	0	2.98743e-05
2494.72	0.086668	0.196036	0	0.000106217
2496.18	0.0958871	0.196031	0	1.07886e-05
2497.14	0.105259	0.196039	0	1.07886e-05
2497.78	0.114688	0.19604	0	6.80457e-05
2498.29	0.123964	0.196035	0	-4.64685e-05
2498.63	0.133145	0.196034	0	0.000125303
2498.95	0.142403	0.196031	0	-8.46399e-05
2499.24	0.151775	0.196027	0	1.07886e-05
2499.5	0.161032	0.196031	0	6.80457e-05
2499.75	0.170251	0.196037	0	0.000163474
2499.97	0.179508	0.196036	0	0.000220731
2500.16	0.188861	0.196032	0	-4.64685e-05
2500.34	0.198328	0.196033	0	4.896e-05
2500.52	0.207605	0.196041	0	6.80457e-05
2500.68	0.216862	0.196036	0	0.000144388
2500.83	0.226329	0.196039	0	-4.64685e-05
2500.97	0.235568	0.196034	0	-2.73828e-05
2501.1	0.244825	0.196038	0	0.000125303
2501.23	0.25433	0.196038	0	-4.64685e-05
2501.34	0.26353	0.196036	0	-8.46399e-05
2501.45	0.272807	0.196042	0	0.000144388
2501.54	0.282369	0.196031	0	0.000106217
2501.63	0.291703	0.196033	0	-8.46399e-05
2501.71	0.301075	0.196036	0	0.000106217
2501.79	0.310332	0.196036	0	0.000106217
2501.86	0.319723	0.196038	0	6.80457e-05
2501.93	0.329248	0.196025	0	-2.73828e-05
2501.99	0.338829	0.196037	0	-4.64685e-05
2502.06	0.348449	0.196041	0	0.000106217
2502.11	0.357993	0.196027	0	4.896e-05
2502.16	0.367556	0.196037	0	-2.73828e-05
2502.21	0.376985	0.196032	0	1.07886e-05
2502.26	0.386319	0.196036	0	0.000125303
2502.3	0.395709	0.196036	0	-8.29709e-06
2502.34	0.405425	0.196035	0	0.000106217
2502.38	0.414968	0.196034	0	0.000163474
2502.42	0.424474	0.196035	0	8.71314e-05
2502.45	0.434037	0.196038	0	1.07886e-05
2502.49	0.443733	0.196034	0	4.896e-05
2502.52	0.453334	0.196034	0	6.80457e-05
2502.55	0.462973	0.196036	0	1.07886e-05
2502.58	0.472536	0.196041	0	0.000106217
2502.6	0.482194	0.196038	0	8.71314e-05
2502.63	0.492081	0.19603	0	-2.73828e-05
2502.66	0.501663	0.196039	0	-6.55542e-05
2502.68	0.511607	0.196031	0	4.896e-05
2502.71	0.521494	0.196032	0	8.71314e-05
2502.73	0.531114	0.196043	0	0.000125303
2502.75	0.540887	0.196035	0	0.000220731
2502.78	0.550373	0.196027	0	2.98743e-05
2502.8	0.56007	0.196031	0	-6.55542e-05
2502.82	0.569613	0.196037	0	6.80457e-05
2502.84	0.579386	0.196046	0	8.71314e-05
2502.86	0.589159	0.196034	0	-2.73828e-05
2502.88	0.598836	0.196034	0	8.71314e-05
2502.9	0.608456	0.196033	0	4.896e-05
2502.92	0.618018	0.196033	0	8.71314e-05
2502.94	0.627829	0.196027	0	0.000106217
2502.96	0.637716	0.196034	0	6.80457e-05
2502.98	0.647604	0.196031	0	1.07886e-05
2503	0.657472	0.196028	0	2.98743e-05
2503.01	0.667054	0.196036	0	4.896e-05
2503.03	0.677017	0.196038	0	-8.29709e-06
2503.05	0.686923	0.196039	0	2.98743e-05
2503.07	0.696391	0.196038	0	0.000125303
2503.08	0.706011	0.196038	0	4.896e-05
2503.1	0.715764	0.196032	0	0.000125303
2503.12	0.725976	0.196039	0	4.896e-05
2503.13	0.735519	0.196029	0	8.71314e-05
2503.15	0.745407	0.196029	0	2.98743e-05
2503.17	0.755237	0.196045	0	4.896e-05
2503.18	0.765315	0.196036	0	1.07886e-05
2503.2	0.77524	0.196032	0	0.000106217
2503.22	0.785127	0.196033	0	-2.73828e-05
2503.23	0.794995	0.196036	0	8.71314e-05
2503.25	0.804749	0.196034	0	6.80457e-05
2503.26	0.814331	0.19604	0	-4.64685e-05
2503.28	0.823817	0.196035	0	-6.55542e-05
2503.3	0.833876	0.196037	0	2.98743e-05
2503.31	0.843381	0.196034	0	6.80457e-05
2503.33	0.853498	0.196035	0	0.000106217
2503.34	0.863537	0.196038	0	8.71314e-05
2503.36	0.873787	0.196029	0	2.98743e-05
2503.37	0.883445	0.196032	0	-8.29709e-06
2503.39	0.893123	0.196036	0	6.80457e-05
2503.4	0.902552	0.196034	0	1.07886e-05
2503.42	0.912573	0.196032	0	4.896e-05
2503.44	0.922403	0.196038	0	0.000163474
2503.45	0.932748	0.196036	0	4.896e-05
2503.47	0.942692	0.196031	0	-8.29709e-06
2503.48	0.952904	0.196036	0	4.896e-05
2503.5	0.962887	0.196038	0	0.000106217
2503.52	0.97264	0.196028	0	6.80457e-05
2503.53	0.982356	0.196047	0	-8.29709e-06
2503.55	0.991823	0.196029	0	-4.64685e-05
2503.56	1.00079	0.196034	0	4.896e-05
2539.77	-0.0458356	0.196032	0	0.000239817
2539.78	-0.0355666	0.196036	0	-4.64685e-05
2539.81	-0.0259085	0.196032	0	-6.55542e-05
2539.88	-0.016384	0.196032	0	-2.73828e-05
2540.01	-0.00672581	0.196031	0	0.000106217
2540.19	0.00251241	0.196039	0	8.71314e-05
2540.47	0.011827	0.196031	0	-0.000103726
2540.89	0.0212942	0.196032	0	-2.73828e-05
2541.52	0.0305897	0.196035	0	4.896e-05
2542.47	0.0399616	0.196043	0	8.71314e-05
2543.85	0.0493907	0.196025	0	0.00018256
2545.77	0.0585907	0.196033	0	4.896e-05
2548.5	0.0677526	0.196032	0	-2.73828e-05
2551.4	0.0769526	0.196032	0	8.71314e-05
2553.56	0.0861145	0.196038	0	0.000220731
2555.16	0.0953527	0.196036	0	4.896e-05
2556.22	0.104648	0.196039	0	-8.46399e-05
2556.94	0.113906	0.196042	0	8.71314e-05
2557.49	0.123125	0.196038	0	6.80457e-05
2557.93	0.132458	0.196043	0	8.71314e-05
2558.29	0.141582	0.196036	0	8.71314e-05
2558.63	0.150992	0.19603	0	1.07886e-05
2558.94	0.160383	0.196036	0	8.71314e-05
2559.21	0.169774	0.196042	0	0.000163474
2559.46	0.179165	0.196038	0	4.896e-05
2559.68	0.188594	0.196034	0	6.80457e-05
2559.87	0.197985	0.196035	0	2.98743e-05
2560.06	0.207299	0.196035	0	0.000144388
2560.24	0.216671	0.196032	0	0.000106217
2560.4	0.225909	0.196038	0	4.896e-05
2560.54	0.235129	0.196035	0	8.71314e-05
2560.67	0.244443	0.196034	0	-8.46399e-05
2560.79	0.254006	0.196043	0	0.000144388
2560.91	0.263339	0.196043	0	2.98743e-05
2561.01	0.272902	0.196036	0	4.896e-05
2561.1	0.282274	0.196036	0	4.896e-05
2561.2	0.291875	0.196045	0	8.71314e-05
2561.28	0.301457	0.196041	0	0.000125303
2561.36	0.310886	0.196026	0	6.80457e-05
2561.44	0.320334	0.196027	0	1.07886e-05
2561.51	0.329782	0.196036	0	2.98743e-05
2561.58	0.339326	0.196043	0	6.80457e-05
2561.64	0.348793	0.196037	0	8.71314e-05
2561.7	0.358432	0.196038	0	6.80457e-05
2561.75	0.367937	0.196037	0	-8.29709e-06
2561.8	0.377367	0.196034	0	4.896e-05
2561.84	0.386681	0.196032	0	8.71314e-05
2561.89	0.395996	0.196043	0	8.71314e-05
2561.93	0.405482	0.196039	0	0.000201646
2561.97	0.415083	0.196038	0	-8.46399e-05
2562.01	0.424741	0.196044	0	-8.29709e-06
2562.04	0.434323	0.196037	0	6.80457e-05
2562.07	0.444	0.196036	0	2.98743e-05
2562.11	0.453486	0.196035	0	0.000163474
2562.14	0.463145	0.196029	0	2.98743e-05
2562.17	0.472841	0.196039	0	0.000163474
2562.2	0.482843	0.196036	0	0.000163474
2562.23	0.492253	0.196035	0	-8.46399e-05
2562.25	0.502006	0.196034	0	0.000106217
2562.28	0.511473	0.196031	0	1.07886e-05
2562.3	0.521208	0.196039	0	1.07886e-05
2562.33	0.530866	0.196039	0	0.000163474
2562.35	0.540734	0.196036	0	0.000125303
2562.38	0.550545	0.196036	0	-0.000103726
2562.4	0.560241	0.196033	0	-8.29709e-06
2562.42	0.569938	0.196031	0	6.80457e-05
2562.45	0.579672	0.196029	0	0.000144388
2562.47	0.58912	0.196032	0	2.98743e-05
2562.49	0.598473	0.196025	0	6.80457e-05
2562.51	0.608341	0.196036	0	4.896e-05
2562.53	0.6184	0.196037	0	8.71314e-05
2562.55	0.628116	0.196032	0	4.896e-05
2562.57	0.637774	0.196038	0	-8.29709e-06
2562.59	0.647756	0.196039	0	-8.29709e-06
2562.61	0.657415	0.196041	0	8.71314e-05
2562.63	0.667073	0.196038	0	0.000106217
2562.65	0.676864	0.196033	0	4.896e-05
2562.67	0.686427	0.196038	0	-2.73828e-05
2562.69	0.696257	0.196023	0	4.896e-05
2562.7	0.705782	0.196038	0	0.000106217
2562.72	0.715421	0.196039	0	4.896e-05
2562.74	0.725346	0.19604	0	-2.73828e-05
2562.76	0.735214	0.196038	0	-2.73828e-05
2562.77	0.74491	0.19604	0	6.80457e-05
2562.79	0.754817	0.196031	0	0.000125303
2562.81	0.764685	0.196034	0	0.000125303
2562.83	0.7744	0.196028	0	-6.55542e-05
2562.84	0.784211	0.196032	0	-8.29709e-06
2562.86	0.794423	0.196029	0	0.000144388
2562.88	0.804062	0.196039	0	4.896e-05
2562.89	0.813815	0.19603	0	6.80457e-05
2562.91	0.82355	0.196036	0	-4.64685e-05
2562.93	0.833628	0.196032	0	6.80457e-05
2562.94	0.84382	0.196037	0	1.07886e-05
2562.96	0.853536	0.196035	0	2.98743e-05
2562.98	0.863671	0.196039	0	0.000144388
2562.99	0.873119	0.196026	0	4.896e-05
2563.01	0.882987	0.196035	0	1.07886e-05
2563.02	0.892836	0.196036	0	6.80457e-05
2563.04	0.90217	0.196031	0	2.98743e-05
2563.06	0.911599	0.196034	0	-2.73828e-05
2563.07	0.92099	0.196035	0	-2.73828e-05
2563.09	0.930457	0.196029	0	1.07886e-05
2563.1	0.940001	0.196027	0	-6.55542e-05
2563.12	0.949602	0.196039	0	-2.73828e-05
2563.14	0.959623	0.196034	0	2.98743e-05
2563.15	0.969224	0.196031	0	-8.29709e-06
2563.17	0.979053	0.196038	0	4.896e-05
2563.18	0.988654	0.196037	0	1.07886e-05
2563.2	0.998465	0.196034	0	6.80457e-05
2563.2	1.0007	0.196036	0	2.98743e-05