File: EXPERIMENTAL/DATA/Electrochemical-cycling/S-series/2024-06-24_S11_TPcell_t1800_C0500_J01_02_MB_C10.txt
time/s	Ewe/V	I/mA	error
60.053	2.22898	-0.0250155	0
60.1794	0.00851602	-47.002	0
60.1862	0.00857329	-44.848	0
60.1936	0.00863056	-42.8129	0
60.2056	0.00863056	-40.0483	0
60.2182	0.00863056	-37.6819	0
60.231	0.00864965	-35.6951	0
60.247	0.00849693	-33.6479	0
60.2664	0.00864965	-31.6401	0
60.2892	0.00859238	-29.7494	0
60.3168	0.00863056	-27.9197	0
60.3514	0.00861147	-26.1332	0
60.3966	0.00864965	-24.329	0
60.4556	0.00859238	-22.547	0
60.5246	0.00863056	-20.9806	0
60.5668	0.00872602	-20.5322	0
60.5866	0.00845874	-20.1888	0
60.6168	0.00874511	-19.8161	0
60.633	0.0085542	-19.5446	0
60.6422	0.00866874	-19.079	0
60.682	0.00864965	-18.5251	0
60.7156	0.00857329	-18.1982	0
60.7428	0.00899329	-17.9222	0
60.77	0.00861147	-18.1887	0
60.7874	0.00861147	-18.2484	0
60.8026	0.00861147	-17.5177	0
60.8156	0.00857329	-17.0713	0
60.8442	0.00882147	-17.0865	0
60.8672	0.00849693	-17.0719	0
60.915	0.00864965	-16.1936	0
60.941	0.00859238	-16.076	0
60.9752	0.00861147	-16.5256	0
60.9946	0.00868784	-15.7224	0
61.0168	0.00866874	-15.5029	0
61.0256	0.00866874	-15.3567	0
61.036	0.00847783	-15.3001	0
61.0696	0.00887875	-15.3153	0
61.1228	0.00864965	-14.7398	0
61.1652	0.00857329	-14.8345	0
61.1836	0.00853511	-15.1258	0
61.2012	0.00864965	-14.6215	0
61.227	0.00872602	-14.2787	0
61.241	0.00870693	-14.5566	0
61.2508	0.00872602	-14.5547	0
61.26	0.00866874	-14.3251	0
61.2718	0.00863056	-14.6107	0
61.2928	0.00864965	-13.8831	0
61.3062	0.00861147	-14.0695	0
61.3262	0.00849693	-14.0491	0
61.3402	0.00847783	-14.6488	0
61.3516	0.0085542	-13.6478	0
61.3816	0.00864965	-13.8844	0
61.4058	0.00859238	-15.0438	0
61.424	0.00861147	-13.7127	0
61.4384	0.00868784	-13.6116	0
61.4502	0.00859238	-13.7617	0
61.4638	0.00859238	-13.3451	0
61.474	0.00861147	-13.1772	0
61.4908	0.00870693	-13.7483	0
61.5034	0.00866874	-13.4189	0
61.5276	0.00870693	-12.8433	0
61.545	0.00866874	-12.9928	0
61.5578	0.00864965	-13.0932	0
61.57	0.00857329	-12.7982	0
61.586	0.00859238	-13.7286	0
61.6052	0.00864965	-13.043	0
61.6206	0.00851602	-12.8096	0
61.6302	0.00863056	-12.8866	0
61.6534	0.00863056	-12.2932	0
61.6866	0.00864965	-12.1113	0
61.739	0.00870693	-11.9987	0
61.753	0.00859238	-11.9765	0
61.7696	0.00870693	-12.0127	0
61.7872	0.00864965	-11.9434	0
61.8076	0.00857329	-12.4083	0
61.8252	0.00864965	-12.2334	0
61.8406	0.00861147	-11.7183	0
61.8654	0.00880238	-12.297	0
61.884	0.00874511	-11.8919	0
61.8946	0.00868784	-12.2258	0
61.9022	0.00870693	-11.9504	0
61.9102	0.00859238	-12.0026	0
61.9218	0.00849693	-12.367	0
61.9312	0.0085542	-12.5584	0
61.9422	0.00870693	-11.7901	0
61.953	0.00857329	-11.8785	0
61.9684	0.00859238	-11.6362	0
61.9808	0.00885966	-11.4187	0
61.9904	0.00863056	-11.1275	0
62.0136	0.00864965	-12.9959	0
62.0242	0.00863056	-12.3282	0
62.0326	0.00863056	-12.7123	0
62.041	0.00853511	-11.9644	0
62.0502	0.00857329	-11.5981	0
62.0672	0.0085542	-12.1278	0
62.076	0.00906966	-11.5192	0
62.0834	0.00878329	-13.5588	0
62.091	0.00849693	-12.3644	0
62.0998	0.00847783	-11.4505	0
62.1078	0.00853511	-11.352	0
62.1204	0.00845874	-11.6369	0
62.1284	0.00866874	-11.5771	0
62.1352	0.00840147	-11.7043	0
62.1426	0.00836329	-12.0433	0
62.1516	0.00840147	-10.744	0
62.1624	0.00866874	-10.9837	0
62.1748	0.00859238	-10.7134	0
62.1848	0.00863056	-10.8578	0
62.193	0.00870693	-12.0344	0
62.2006	0.00853511	-10.6899	0
62.2104	0.00872602	-10.702	0
62.2284	0.0085542	-11.2731	0
62.2404	0.00863056	-11.71	0
62.2628	0.00872602	-10.5869	0
62.2816	0.0085542	-10.3783	0
62.3298	0.00849693	-10.2842	0
62.3524	0.00826783	-10.585	0
62.361	0.0085542	-10.564	0
62.3678	0.00864965	-11.5288	0
62.3768	0.00853511	-12.5336	0
62.3842	0.00847783	-13.181	0
62.392	0.00851602	-12.2932	0
62.4	0.00908875	-12.3275	0
62.4082	0.00851602	-10.943	0
62.4228	0.00864965	-10.9678	0
62.4392	0.00857329	-10.026	0
62.4596	0.00868784	-10.9526	0
62.4678	0.00843965	-13.0704	0
62.4758	0.00861147	-12.3441	0
62.484	0.00853511	-12.1208	0
62.4918	0.00874511	-10.8037	0
62.499	0.00853511	-10.1938	0
62.5146	0.0085542	-10.2466	0
62.525	0.00861147	-10.3967	0
62.536	0.00874511	-10.0717	0
62.5442	0.00868784	-10.4794	0
62.5524	0.00845874	-9.95218	0
62.5634	0.00847783	-10.2816	0
62.5752	0.00872602	-10.8737	0
62.585	0.00880238	-10.3554	0
62.5976	0.00864965	-10.9392	0
62.6164	0.00868784	-10.5697	0
62.6324	0.00868784	-10.2861	0
62.647	0.00847783	-10.1296	0
62.6582	0.00866874	-10.0539	0
62.6722	0.00857329	-10.2377	0
62.683	0.00857329	-11.1923	0
62.6926	0.00863056	-10.2161	0
62.7062	0.00863056	-9.95218	0
62.7168	0.00861147	-10.5137	0
62.7282	0.00849693	-11.3259	0
62.7378	0.00857329	-11.4194	0
62.7504	0.00861147	-9.96363	0
62.7628	0.00828693	-10.349	0
62.7734	0.00864965	-10.0457	0
62.7846	0.00863056	-10.3147	0
62.7932	0.0087642	-11.4028	0
62.8046	0.00861147	-10.3522	0
62.8146	0.00872602	-9.48983	0
62.825	0.00870693	-10.2867	0
62.8338	0.0085542	-11.1936	0
62.8428	0.00842056	-12.1126	0
62.8512	0.00866874	-10.8394	0
62.8586	0.00866874	-9.41733	0
62.8676	0.00859238	-9.36073	0
62.8806	0.00863056	-9.5	0
62.889	0.00866874	-10.4171	0
62.8966	0.00864965	-10.1767	0
62.907	0.0085542	-9.79573	0
62.9172	0.00857329	-9.76139	0
62.9302	0.00824874	-10.1385	0
62.9402	0.00863056	-10.709	0
62.9514	0.00868784	-9.74676	0
62.9694	0.00853511	-9.10443	0
62.9782	0.00859238	-9.77284	0
62.9896	0.00868784	-10.2822	0
63.0044	0.00880238	-9.11842	0
63.0134	0.00864965	-9.49937	0
63.0236	0.00861147	-9.82944	0
63.039	0.00853511	-9.4345	0
63.0506	0.00861147	-8.96579	0
63.0602	0.0085542	-9.11906	0
63.0724	0.00861147	-8.79789	0
63.081	0.00863056	-9.44149	0
63.093	0.00859238	-9.24498	0
63.1036	0.00864965	-9.19156	0
63.1108	0.00851602	-9.68571	0
63.1234	0.00868784	-9.75503	0
63.134	0.0085542	-9.31112	0
63.1434	0.00887875	-9.71814	0
63.1622	0.0085542	-9.60939	0
63.1752	0.00864965	-11.3863	0
63.1844	0.00849693	-9.15403	0
63.198	0.00861147	-11.261	0
63.2076	0.00857329	-10.7452	0
63.2156	0.00857329	-11.3507	0
63.2264	0.00863056	-9.37726	0
63.2398	0.00870693	-9.16039	0
63.2524	0.00870693	-9.53435	0
63.2682	0.00853511	-8.86785	0
63.277	0.00857329	-9.30985	0
63.2868	0.00849693	-9.71878	0
63.2964	0.00861147	-10.1137	0
63.3108	0.00859238	-8.78263	0
63.3202	0.00887875	-9.18965	0
63.328	0.00847783	-8.7362	0
63.337	0.00859238	-10.1837	0
63.3458	0.00851602	-9.08662	0
63.3568	0.00872602	-9.01412	0
63.3704	0.00880238	-10.6066	0
63.3834	0.00859238	-9.44277	0
63.3958	0.00863056	-9.40397	0
63.4068	0.00857329	-10.8807	0
63.4292	0.00857329	-8.7769	0
63.4392	0.00843965	-9.71242	0
63.447	0.00868784	-10.9398	0
63.454	0.00826783	-10.3344	0
63.466	0.00857329	-9.55724	0
63.4872	0.00859238	-9.53244	0
63.502	0.00866874	-8.71267	0
63.5144	0.0087642	-10.0444	0
63.5262	0.00857329	-9.61384	0
63.534	0.00859238	-8.44174	0
63.5536	0.00859238	-9.90321	0
63.5622	0.00851602	-11.502	0
63.571	0.00866874	-8.95625	0
63.5848	0.00872602	-9.78492	0
63.5934	0.00830602	-9.81735	0
63.6038	0.00866874	-11.2712	0
63.6128	0.00863056	-10.4024	0
63.6224	0.00863056	-9.82944	0
63.6332	0.00866874	-9.0491	0
63.642	0.00857329	-8.85258	0
63.655	0.00861147	-9.35754	0
63.6648	0.00861147	-7.98639	0
63.6784	0.00882147	-7.99529	0
63.6896	0.00859238	-9.46693	0
63.7006	0.00849693	-8.4621	0
63.7124	0.00861147	-9.28441	0
63.7226	0.0085542	-8.91109	0
63.7334	0.00851602	-8.04045	0
63.7466	0.00863056	-10.5576	0
63.7556	0.00849693	-8.62554	0
63.764	0.00857329	-9.24879	0
63.7724	0.00872602	-8.62745	0
63.7802	0.00872602	-8.51107	0
63.789	0.00851602	-9.21191	0
63.799	0.00872602	-8.86721	0
63.8144	0.00849693	-8.1422	0
63.8246	0.00887875	-8.49898	0
63.8404	0.00872602	-10.1449	0
63.849	0.00845874	-9.10824	0
63.8586	0.00931784	-8.82778	0
63.8676	0.00859238	-8.2783	0
63.8802	0.00859238	-8.95179	0
63.8884	0.00929875	-10.5087	0
63.8966	0.00853511	-8.16192	0
63.9066	0.00838238	-8.80234	0
63.916	0.00851602	-7.71546	0
63.9258	0.00861147	-9.90067	0
63.9398	0.00838238	-8.60137	0
63.9486	0.00857329	-9.00712	0
63.9578	0.0085542	-9.89621	0
63.9654	0.00864965	-9.17121	0
63.9756	0.00931784	-10.0597	0
63.9884	0.0085542	-8.32981	0
63.9988	0.00851602	-9.63737	0
64.0064	0.00874511	-8.36416	0
64.0272	0.0085542	-7.6118	0
64.042	0.00868784	-8.55431	0
64.0548	0.0085542	-8.72602	0
64.0668	0.00859238	-7.53485	0
64.0892	0.0085542	-9.0402	0
64.0992	0.00851602	-8.68977	0
64.1138	0.0085542	-8.94226	0
64.132	0.00853511	-7.84139	0
64.1406	0.0085542	-11.0244	0
64.1498	0.00851602	-10.08	0
64.1594	0.00874511	-11.2235	0
64.1668	0.00859238	-9.41987	0
64.1784	0.00849693	-8.84241	0
64.1872	0.00901238	-11.0371	0
64.1944	0.00884056	-10.4253	0
64.204	0.00864965	-9.78746	0
64.2146	0.00868784	-9.28059	0
64.2224	0.00845874	-8.78453	0
64.2318	0.00864965	-10.8006	0
64.2394	0.00857329	-10.5048	0
64.2538	0.00819147	-8.94353	0
64.2648	0.00853511	-9.4663	0
64.2736	0.00866874	-9.72323	0
64.2812	0.00864965	-8.62936	0
64.289	0.00861147	-7.75489	0
64.2972	0.00857329	-10.2721	0
64.3056	0.00847783	-8.86149	0
64.3162	0.00870693	-11.4957	0
64.323	0.00842056	-9.14386	0
64.3314	0.00864965	-9.70542	0
64.34	0.00826783	-8.60901	0
64.3496	0.00891693	-8.49389	0
64.3598	0.00842056	-8.03599	0
64.3668	0.0085542	-8.92763	0
64.3744	0.00864965	-8.13648	0
64.3882	0.00863056	-9.62084	0
64.3966	0.00863056	-8.58548	0
64.405	0.00861147	-8.37815	0
64.4168	0.00863056	-8.32918	0
64.429	0.00853511	-8.79471	0
64.438	0.00863056	-9.7245	0
64.4524	0.00853511	-9.6361	0
64.4662	0.00859238	-8.20771	0
64.476	0.00853511	-7.6347	0
64.485	0.00859238	-7.68621	0
64.4972	0.00859238	-10.508	0
64.5072	0.0085542	-8.61155	0
64.5178	0.00859238	-9.41923	0
64.528	0.00866874	-9.05164	0
64.5374	0.00868784	-9.21191	0
64.5482	0.00864965	-9.42241	0
64.5622	0.00845874	-7.83185	0
64.5708	0.00822965	-10.1392	0
64.5796	0.00870693	-7.54757	0
64.5886	0.00843965	-9.37281	0
64.5988	0.00866874	-13.6008	0
64.6064	0.00863056	-8.25922	0
64.6162	0.00861147	-8.54477	0
64.6244	0.00853511	-8.51997	0
64.6334	0.00842056	-11.0009	0
64.641	0.00851602	-10.2136	0
64.6486	0.00857329	-9.29904	0
64.656	0.00853511	-9.00649	0
64.6642	0.00863056	-9.04147	0
64.6716	0.00889784	-8.75655	0
64.6782	0.00815329	-10.3554	0
64.6854	0.00885966	-8.64208	0
64.6942	0.00866874	-8.28402	0
64.7042	0.00861147	-7.40511	0
64.7152	0.00853511	-7.77588	0
64.7226	0.00863056	-8.33299	0
64.7302	0.00872602	-9.12287	0
64.7384	0.00849693	-8.74638	0
64.7462	0.00851602	-9.74867	0
64.7542	0.00849693	-8.71776	0
64.7612	0.00849693	-9.17439	0
64.7694	0.00853511	-7.32943	0
64.779	0.00864965	-9.05546	0
64.7862	0.00851602	-8.68405	0
64.7938	0.0085542	-8.42203	0
64.8012	0.00859238	-8.34317	0
64.8088	0.00851602	-6.86835	0
64.8176	0.00861147	-7.79114	0
64.8292	0.00863056	-6.91605	0
64.8402	0.00859238	-7.35423	0
64.851	0.00866874	-7.3396	0
64.8674	0.0085542	-7.63597	0
64.8768	0.00891693	-7.56029	0
64.8876	0.00868784	-8.3031	0
64.8952	0.00863056	-8.44047	0
64.9046	0.00933693	-8.33808	0
64.9136	0.00851602	-8.28975	0
64.9214	0.00885966	-8.76546	0
64.9288	0.00847783	-10.0546	0
64.9362	0.00853511	-7.53676	0
64.9456	0.00868784	-9.05482	0
64.953	0.00838238	-7.82676	0
64.9614	0.00866874	-6.96438	0
64.9718	0.00857329	-7.02225	0
64.9808	0.00853511	-6.8321	0
64.9894	0.0085542	-10.0425	0
64.9972	0.00811511	-11.3361	0
65.0042	0.00851602	-9.58968	0
65.0128	0.0085542	-9.10443	0
65.0204	0.00861147	-9.61257	0
65.0284	0.00863056	-8.23124	0
65.0366	0.00870693	-8.71013	0
65.0454	0.00861147	-6.93131	0
65.0536	0.00847783	-7.33388	0
65.0626	0.00857329	-7.65568	0
65.072	0.00870693	-9.15467	0
65.081	0.0091842	-7.69511	0
65.0904	0.00857329	-7.50941	0
65.0986	0.00857329	-6.76469	0
65.1072	0.00843965	-8.5117	0
65.117	0.00864965	-8.03218	0
65.1242	0.00851602	-9.03765	0
65.132	0.00849693	-10.4788	0
65.1388	0.00845874	-9.97507	0
65.1456	0.00849693	-9.1375	0
65.154	0.00851602	-10.0819	0
65.1618	0.00851602	-7.98321	0
65.17	0.00843965	-7.85347	0
65.1802	0.00908875	-7.6913	0
65.19	0.00842056	-7.8293	0
65.1976	0.0085542	-9.4841	0
65.2054	0.00889784	-8.41122	0
65.2146	0.00887875	-6.96883	0
65.2248	0.00859238	-6.51284	0
65.2322	0.00863056	-7.55838	0
65.2394	0.0085542	-8.97533	0
65.2492	0.00864965	-7.98448	0
65.2608	0.0085542	-7.48969	0
65.2728	0.00859238	-7.33452	0
65.2834	0.00859238	-8.38451	0
65.2952	0.00861147	-8.52124	0
65.3044	0.00868784	-9.20809	0
65.3128	0.00884056	-9.0898	0
65.3214	0.00885966	-8.69868	0
65.3292	0.00857329	-8.12058	0
65.3364	0.00866874	-8.00865	0
65.3438	0.00874511	-9.80463	0
65.3508	0.00872602	-7.99529	0
65.3584	0.00872602	-9.05228	0
65.3658	0.00849693	-8.54795	0
65.3734	0.0085542	-7.00826	0
65.3806	0.00849693	-7.29954	0
65.3926	0.00882147	-6.68773	0
65.4	0.00868784	-7.33897	0
65.4078	0.00861147	-7.91452	0
65.4156	0.00836329	-8.10341	0
65.4232	0.00864965	-7.60353	0
65.4322	0.00851602	-7.91007	0
65.4422	0.00859238	-7.43373	0
65.4524	0.00878329	-6.86962	0
65.4672	0.00870693	-7.48333	0
65.4746	0.00857329	-10.115	0
65.4814	0.00868784	-11.0047	0
65.4896	0.00885966	-9.04655	0
65.4976	0.00849693	-10.0279	0
65.5054	0.00891693	-8.99568	0
65.5132	0.00872602	-9.18583	0
65.5204	0.00868784	-10.8241	0
65.528	0.00842056	-10.6187	0
65.5346	0.00874511	-6.87471	0
65.5434	0.00849693	-8.3012	0
65.5506	0.00843965	-9.31494	0
65.5594	0.00870693	-7.60735	0
65.5688	0.00882147	-9.29586	0
65.5774	0.0085542	-10.7268	0
65.5852	0.00893602	-7.87191	0
65.5984	0.00861147	-8.33808	0
65.6056	0.00849693	-9.37344	0
65.6138	0.00859238	-7.91389	0
65.6206	0.00872602	-7.72182	0
65.6288	0.00864965	-6.91096	0
65.6358	0.0087642	-9.06945	0
65.644	0.0085542	-8.24205	0
65.6546	0.00861147	-6.25082	0
65.6692	0.0085542	-6.61332	0
65.678	0.0085542	-8.30946	0
65.687	0.00868784	-7.29381	0
65.6952	0.00861147	-8.0697	0
65.7028	0.00868784	-9.24371	0
65.7108	0.00857329	-7.05215	0
65.7204	0.00866874	-6.78567	0
65.7344	0.00851602	-6.7119	0
65.7432	0.00874511	-8.37242	0
65.7524	0.00910784	-6.63813	0
65.7596	0.00916511	-7.65568	0
65.7666	0.00878329	-7.7479	0
65.7732	0.0087642	-8.13075	0
65.7814	0.00853511	-8.37052	0
65.7898	0.00853511	-7.62897	0
65.8	0.00861147	-6.76723	0
65.8094	0.00884056	-6.21457	0
65.8194	0.00849693	-6.97201	0
65.827	0.00864965	-8.38451	0
65.836	0.00859238	-6.09882	0
65.8502	0.00914602	-7.63342	0
65.8592	0.00866874	-8.62045	0
65.8684	0.00843965	-6.81048	0
65.875	0.00853511	-7.7479	0
65.8822	0.00874511	-6.16687	0
65.8912	0.0085542	-7.81913	0
65.9026	0.00901238	-8.6548	0
65.9118	0.00859238	-8.92127	0
65.9198	0.00828693	-7.18952	0
65.9268	0.00895511	-10.2129	0
65.9342	0.00807692	-8.6001	0
65.9422	0.00851602	-6.67056	0
65.9514	0.00868784	-6.21521	0
65.9616	0.00870693	-6.06575	0
65.9692	0.00864965	-8.13966	0
65.977	0.00874511	-7.66141	0
65.985	0.00884056	-6.67947	0
65.9954	0.00828693	-8.03663	0
66.0034	0.0085542	-7.72373	0
66.0116	0.00859238	-7.78924	0
66.0188	0.00842056	-6.38247	0
66.03	0.00851602	-6.10518	0
66.0374	0.0085542	-7.59463	0
66.0462	0.00851602	-8.95752	0
66.0536	0.00853511	-6.08229	0
66.0628	0.00866874	-7.54121	0
66.0746	0.00840147	-6.94339	0
66.084	0.00861147	-9.84089	0
66.0918	0.00853511	-8.75401	0
66.1004	0.00903147	-9.33147	0
66.108	0.00864965	-8.43348	0
66.1152	0.00840147	-10.0622	0
66.1228	0.0087642	-7.31289	0
66.1318	0.00878329	-6.22538	0
66.1394	0.00807692	-8.17082	0
66.1464	0.00859238	-7.81595	0
66.1542	0.00882147	-8.35016	0
66.1632	0.00905057	-6.04476	0
66.1702	0.00840147	-7.24039	0
66.178	0.00851602	-8.65352	0
66.1854	0.0085542	-8.49898	0
66.193	0.00899329	-10.3738	0
66.201	0.00853511	-9.36963	0
66.2108	0.00864965	-6.64512	0
66.2182	0.00864965	-12.6748	0
66.2246	0.00845874	-6.87089	0
66.2324	0.00863056	-10.6002	0
66.24	0.0085542	-6.86263	0
66.2484	0.00861147	-8.10913	0
66.2566	0.00843965	-7.57364	0
66.2642	0.00859238	-8.90664	0
66.272	0.00861147	-10.0921	0
66.2802	0.00847783	-7.64805	0
66.2892	0.00870693	-8.36988	0
66.297	0.00845874	-7.20478	0
66.3088	0.00849693	-8.09578	0
66.318	0.00863056	-7.03307	0
66.3296	0.0085542	-8.96897	0
66.3378	0.00872602	-7.38031	0
66.3456	0.00868784	-11.4531	0
66.3524	0.00878329	-12.4058	0
66.3602	0.0085542	-9.29522	0
66.3734	0.00842056	-7.66014	0
66.3804	0.00861147	-7.71419	0
66.3892	0.00857329	-7.57682	0
66.4004	0.00859238	-7.90117	0
66.4082	0.00780965	-6.83591	0
66.4218	0.00874511	-7.14881	0
66.4308	0.00870693	-9.57568	0
66.4374	0.00863056	-12.4789	0
66.445	0.00836329	-6.87153	0
66.4574	0.00845874	-8.17782	0
66.469	0.00924148	-6.07784	0
66.4798	0.00864965	-10.7427	0
66.4878	0.00859238	-6.6324	0
66.4986	0.00859238	-5.83617	0
66.5132	0.00859238	-7.06677	0
66.5238	0.00859238	-6.91732	0
66.5324	0.00872602	-9.16039	0
66.5404	0.00868784	-8.57212	0
66.55	0.00887875	-6.83146	0
66.5586	0.00864965	-8.62618	0
66.5658	0.00826783	-8.91682	0
66.5732	0.00857329	-7.37776	0
66.5806	0.00878329	-9.55915	0
66.5892	0.00853511	-8.24332	0
66.597	0.00847783	-8.82015	0
66.6054	0.00868784	-10.0215	0
66.6128	0.00838238	-6.95484	0
66.6224	0.00859238	-6.86708	0
66.632	0.00866874	-8.19562	0
66.643	0.00817238	-7.6277	0
66.655	0.00903147	-5.95891	0
66.6644	0.00866874	-9.43704	0
66.6708	0.00803874	-14.5445	0
66.6778	0.0085542	-7.78415	0
66.6864	0.00891693	-8.81633	0
66.6982	0.00832511	-6.47087	0
66.7114	0.0083442	-6.25146	0
66.7206	0.00863056	-7.58573	0
66.7282	0.0083442	-10.5888	0
66.7362	0.00830602	-13.4532	0
66.7434	0.00864965	-8.02264	0
66.7504	0.00878329	-9.82753	0
66.758	0.00870693	-5.96908	0
66.7662	0.00849693	-7.73772	0
66.774	0.00870693	-8.18418	0
66.7842	0.00868784	-6.46451	0
66.7946	0.0085542	-6.25654	0
66.8028	0.00863056	-6.65848	0
66.8112	0.00853511	-7.01717	0
66.8206	0.00853511	-6.64703	0
66.828	0.00838238	-8.9359	0
66.8354	0.00845874	-9.42496	0
66.844	0.00870693	-6.58534	0
66.8558	0.00843965	-9.96808	0
66.863	0.00912693	-6.9453	0
66.8712	0.00847783	-8.14475	0
66.879	0.00832511	-6.88934	0
66.8876	0.00861147	-6.61396	0
66.8974	0.00868784	-5.70579	0
66.9056	0.00815329	-9.44404	0
66.9132	0.00868784	-9.00649	0
66.924	0.00895511	-5.86415	0
66.9322	0.00857329	-8.45574	0
66.9414	0.00893602	-7.59399	0
66.95	0.00853511	-7.12528	0
66.9596	0.00853511	-8.71076	0
66.967	0.00872602	-6.0454	0
66.9742	0.00884056	-8.20135	0
66.988	0.00861147	-6.48422	0
66.9964	0.0085542	-7.8293	0
67.0038	0.00866874	-10.3948	0
67.0108	0.00828693	-8.02009	0
67.0188	0.00847783	-6.6076	0
67.0274	0.00866874	-6.69536	0
67.0348	0.00842056	-6.29025	0
67.042	0.00857329	-6.64194	0
67.0492	0.00864965	-9.10761	0
67.0572	0.00845874	-8.56703	0
67.0642	0.00857329	-9.26024	0
67.0714	0.00866874	-9.39125	0
67.0784	0.00826783	-13.3279	0
67.085	0.00874511	-12.5679	0
67.0918	0.00842056	-10.3147	0
67.0988	0.00929875	-8.81888	0
67.1058	0.00853511	-6.44543	0
67.1138	0.00849693	-6.0842	0
67.1216	0.00864965	-7.0178	0
67.1294	0.00853511	-5.66636	0
67.1368	0.00863056	-8.58675	0
67.144	0.00864965	-5.67209	0
67.1536	0.00863056	-7.70211	0
67.1618	0.00874511	-5.89595	0
67.1714	0.00838238	-6.34812	0
67.1862	0.00872602	-7.08331	0
67.1952	0.00884056	-8.42267	0
67.2036	0.00899329	-8.7114	0
67.2116	0.00853511	-7.66713	0
67.2186	0.00935602	-12.2843	0
67.2256	0.00851602	-6.71254	0
67.2332	0.00853511	-6.60442	0
67.2424	0.00851602	-5.60658	0
67.2524	0.00849693	-8.75337	0
67.2596	0.00857329	-8.60328	0
67.2666	0.00868784	-10.0457	0
67.2736	0.00863056	-7.80514	0
67.2814	0.0085542	-7.90753	0
67.29	0.00819147	-8.84877	0
67.298	0.00868784	-6.31505	0
67.306	0.00866874	-6.70427	0
67.3132	0.00859238	-10.7859	0
67.3208	0.00843965	-9.6024	0
67.3286	0.00889784	-8.33999	0
67.3364	0.0087642	-10.7853	0
67.3438	0.00880238	-6.92495	0
67.3538	0.00872602	-7.24103	0
67.3664	0.00853511	-7.50305	0
67.3732	0.00847783	-11.8518	0
67.38	0.00861147	-11.6343	0
67.3876	0.00828693	-6.31696	0
67.3964	0.0087642	-5.58877	0
67.4036	0.00863056	-10.2225	0
67.4106	0.00880238	-8.89519	0
67.4178	0.00870693	-9.70161	0
67.425	0.00874511	-8.87675	0
67.4324	0.00849693	-8.85894	0
67.4394	0.00842056	-10.2765	0
67.4474	0.00828693	-7.17362	0
67.4542	0.00857329	-7.04579	0
67.4632	0.00941329	-8.96006	0
67.47	0.00874511	-11.3558	0
67.4784	0.00847783	-6.13316	0
67.489	0.00853511	-5.6988	0
67.4994	0.00845874	-5.5964	0
67.5092	0.00863056	-7.15517	0
67.5174	0.00851602	-6.13762	0
67.5244	0.00884056	-10.6581	0
67.5334	0.00851602	-5.59068	0
67.5408	0.00914602	-8.10977	0
67.5516	0.00872602	-6.09246	0
67.5634	0.00803874	-7.6029	0
67.5736	0.00870693	-8.63635	0
67.5858	0.00922238	-5.66827	0
67.5982	0.00884056	-8.7114	0
67.607	0.00866874	-9.29967	0
67.6142	0.00845874	-9.86823	0
67.6214	0.00838238	-6.27435	0
67.6284	0.00861147	-11.495	0
67.6362	0.00866874	-5.46794	0
67.6446	0.00851602	-5.43932	0
67.6588	0.00853511	-5.39798	0
67.6662	0.00870693	-5.4902	0
67.6744	0.00910784	-8.25413	0
67.6852	0.00861147	-10.7777	0
67.6932	0.00868784	-8.57085	0
67.7006	0.00863056	-8.85704	0
67.7074	0.00903147	-10.3217	0
67.714	0.00859238	-8.22361	0
67.7224	0.00874511	-5.91884	0
67.7304	0.00851602	-9.3709	0
67.7374	0.00866874	-9.50318	0
67.7444	0.00859238	-6.3176	0
67.7524	0.00849693	-6.87026	0
67.7594	0.0089742	-7.11574	0
67.7668	0.00910784	-8.23315	0
67.7736	0.00840147	-10.3109	0
67.7828	0.00891693	-7.76443	0
67.7906	0.00840147	-11.2706	0
67.7988	0.00857329	-5.52518	0
67.8102	0.00859238	-6.18659	0
67.8194	0.00859238	-5.46603	0
67.829	0.00872602	-7.92851	0
67.8376	0.00882147	-7.18443	0
67.845	0.00845874	-11.6362	0
67.8522	0.00870693	-9.30349	0
67.8598	0.00864965	-8.22297	0
67.8676	0.00828693	-8.92954	0
67.8774	0.00864965	-6.29216	0
67.884	0.00777147	-8.66306	0
67.8928	0.00866874	-5.64983	0
67.9018	0.00863056	-5.31022	0
67.911	0.00853511	-9.47711	0
67.9262	0.00864965	-5.44631	0
67.9372	0.00864965	-9.11142	0
67.962	0.00861147	-5.35028	0
67.9712	0.00853511	-6.69536	0
68.0004	0.00830602	-5.41006	0
68.0096	0.00853511	-5.2975	0
68.0354	0.00845874	-13.9919	0
68.042	0.0085542	-8.13393	0
68.0732	0.00868784	-8.18036	0
68.0824	0.00885966	-6.28898	0
68.1094	0.00857329	-8.54732	0
68.1176	0.00866874	-11.0499	0
68.1464	0.00845874	-9.8606	0
68.1536	0.00859238	-12.0394	0
68.1828	0.00889784	-10.0711	0
68.19	0.00843965	-9.0421	0
68.2196	0.0085542	-14.6304	0
68.2266	0.00866874	-10.059	0
68.2562	0.00868784	-12.477	0
68.2644	0.00874511	-7.08458	0
68.2922	0.00859238	-5.59259	0
68.3008	0.00861147	-6.65085	0
68.33	0.00866874	-6.79076	0
68.338	0.00857329	-6.16433	0
68.369	0.00824874	-7.97049	0
68.3776	0.00872602	-8.80107	0
68.404	0.00859238	-7.21877	0
68.414	0.00895511	-5.76557	0
68.4404	0.0083442	-9.72832	0
68.4494	0.00832511	-5.43169	0
68.4766	0.00878329	-6.85436	0
68.4836	0.00863056	-11.9587	0
68.522	0.00870693	-5.72042	0
68.5294	0.00870693	-9.21572	0
68.5606	0.00859238	-7.47125	0
68.5686	0.00859238	-6.52302	0
68.596	0.00821056	-7.07059	0
68.604	0.00863056	-10.9856	0
68.6334	0.00864965	-6.97456	0
68.641	0.00872602	-5.50673	0
68.6702	0.0091842	-8.31455	0
68.6782	0.00874511	-13.1136	0
68.7086	0.00857329	-13.5925	0
68.7154	0.0093942	-13.4049	0
68.744	0.00847783	-8.4551	0
68.7516	0.00857329	-5.43232	0
68.782	0.00901238	-5.71915	0
68.7908	0.00933693	-6.22538	0
68.8176	0.00863056	-15.2734	0
68.8242	0.00836329	-10.5697	0
68.8542	0.0089742	-14.846	0
68.8834	0.00927966	-7.44136	0
68.8902	0.00870693	-16.9186	0
68.9198	0.00843965	-6.4626	0
68.9272	0.00796238	-6.16178	0
68.9572	0.00798147	-13.8138	0
68.964	0.00863056	-10.0946	0
68.9944	0.00863056	-5.52836	0
69.0026	0.00864965	-7.21623	0
69.0306	0.00822965	-13.2026	0
69.0382	0.00882147	-5.78974	0
69.0676	0.00861147	-7.138	0
69.0758	0.00868784	-6.42762	0
69.1048	0.00861147	-7.5622	0
69.1152	0.00859238	-9.28187	0
69.1414	0.00763783	-10.9004	0
69.1482	0.00826783	-8.23442	0
69.1784	0.0085542	-6.67183	0
69.1876	0.00861147	-5.1207	0
69.2154	0.00847783	-10.7045	0
69.222	0.00815329	-5.43423	0
69.2522	0.00868784	-9.52799	0
69.2588	0.00863056	-9.0243	0
69.2886	0.00861147	-12.4204	0
69.295	0.00845874	-17.1934	0
69.327	0.00861147	-7.71356	0
69.3346	0.00824874	-5.1366	0
69.3634	0.00811511	-6.99745	0
69.3704	0.00851602	-8.04871	0
69.4008	0.00779056	-10.2753	0
69.4098	0.00863056	-5.13342	0
69.4378	0.00868784	-7.6843	0
69.4452	0.00849693	-7.71228	0
69.4756	0.00853511	-9.43831	0
69.483	0.00861147	-7.33833	0
69.5106	0.00857329	-7.02162	0
69.5184	0.00851602	-6.66547	0
69.5554	0.00851602	-9.79001	0
69.564	0.00842056	-11.3151	0
69.5938	0.00849693	-8.87166	0
69.601	0.00828693	-13.4278	0
69.6292	0.00859238	-9.32002	0
69.6376	0.00857329	-8.80361	0
69.6654	0.00866874	-8.3031	0
69.6732	0.0085542	-5.97036	0
69.7032	0.00822965	-10.4419	0
69.7104	0.00861147	-11.2349	0
69.7428	0.00847783	-9.6609	0
69.7498	0.00895511	-9.61766	0
69.778	0.00859238	-12.9292	0
69.7854	0.0085542	-8.44747	0
69.8146	0.0085542	-6.85754	0
69.8228	0.00861147	-11.2286	0
69.8524	0.00864965	-8.10277	0
69.8604	0.00863056	-10.7401	0
69.8902	0.00866874	-7.53612	0
69.8972	0.0101197	-16.5116	0
69.9288	0.00832511	-7.01526	0
69.9376	0.00920329	-9.13877	0
69.9646	0.00805783	-9.48856	0
69.972	0.00861147	-7.62897	0
70.0022	0.00859238	-4.92355	0
70.0098	0.00880238	-5.19447	0
70.0382	0.00822965	-10.5093	0
70.0676	0.00773329	-6.21457	0
70.0782	0.00853511	-5.77448	0
70.1048	0.00870693	-5.10798	0
70.1118	0.00849693	-7.94378	0
70.1418	0.00851602	-5.53853	0
70.1492	0.00773329	-10.328	0
70.1796	0.00872602	-6.07974	0
70.1876	0.00864965	-5.95128	0
70.215	0.00889784	-14.2412	0
70.2214	0.00878329	-8.58357	0
70.2524	0.00821056	-11.1968	0
70.2598	0.00872602	-5.39098	0
70.2886	0.00866874	-5.20592	0
70.2976	0.00851602	-11.2839	0
70.3264	0.00859238	-4.88539	0
70.3346	0.00880238	-9.93374	0
70.3628	0.00815329	-7.09539	0
70.37	0.00929875	-8.74956	0
70.4008	0.00847783	-10.2072	0
70.4078	0.00931784	-7.95205	0
70.4368	0.00863056	-7.98448	0
70.4452	0.00872602	-12.849	0
70.4734	0.00870693	-7.61562	0
70.4806	0.00847783	-14.0052	0
70.5098	0.00910784	-8.87611	0
70.517	0.00859238	-12.6449	0
70.5544	0.00866874	-9.91847	0
70.5624	0.00866874	-10.9831	0
70.5906	0.00893602	-10.4584	0
70.5982	0.00864965	-10.4387	0
70.6276	0.0096233	-14.037	0
70.6354	0.00847783	-11.109	0
70.6642	0.00872602	-8.57021	0
70.6738	0.00740874	-14.4708	0
70.7008	0.00851602	-9.31494	0
70.708	0.00864965	-20.669	0
70.739	0.00780965	-7.42355	0
70.747	0.00870693	-16.9326	0
70.777	0.00874511	-4.96361	0
70.7862	0.00849693	-7.64742	0
70.8124	0.00853511	-4.69396	0
70.8196	0.00885966	-9.40461	0
70.8506	0.00859238	-7.69766	0
70.8578	0.0085542	-13.6173	0
70.8866	0.00857329	-7.56665	0
70.8938	0.00851602	-11.1605	0
70.9242	0.00922238	-8.70313	0
70.9308	0.00868784	-5.59322	0
70.9612	0.00874511	-9.79255	0
70.9682	0.00859238	-7.28173	0
70.998	0.00843965	-6.70109	0
71.0058	0.00843965	-6.27053	0
71.0346	0.00868784	-13.4068	0
71.0414	0.00845874	-10.9863	0
71.0704	0.00853511	-4.95344	0
71.0806	0.00842056	-6.09119	0
71.1082	0.00874511	-13.5193	0
71.1154	0.00868784	-8.87357	0
71.1486	0.00849693	-4.93181	0
71.1602	0.00853511	-6.35385	0
71.1826	0.00870693	-6.56499	0
71.1894	0.00872602	-8.48054	0
71.2204	0.0085542	-4.88221	0
71.248	0.00861147	-5.23263	0
71.2576	0.00840147	-18.5194	0
71.285	0.00872602	-7.43309	0
71.2942	0.00851602	-13.4144	0
71.3224	0.00849693	-12.0579	0
71.329	0.00780965	-9.065	0
71.3598	0.00847783	-4.776	0
71.3676	0.0085542	-13.6574	0
71.396	0.00912693	-7.65632	0
71.4026	0.00905057	-14.4898	0
71.4324	0.00868784	-10.8006	0
71.4398	0.00868784	-15.0374	0
71.4694	0.00899329	-5.05837	0
71.4766	0.00832511	-9.49174	0
71.506	0.00752328	-12.6652	0
71.5134	0.00670237	-14.729	0
71.5434	0.00832511	-30.4903	0
71.5498	0.00866874	-8.75655	0
71.5884	0.00872602	-5.11815	0
71.5966	0.00811511	-4.95789	0
71.6236	0.00840147	-17.2862	0
71.6302	0.00805783	-9.19283	0
71.6602	0.00859238	-6.66357	0
71.6676	0.00842056	-13.5651	0
71.6966	0.00853511	-6.28516	0
71.7042	0.0085542	-6.86771	0
71.7352	0.00878329	-7.66777	0
71.7418	0.00822965	-10.6041	0
71.7712	0.00878329	-8.13266	0
71.7788	0.0087642	-5.35791	0
71.8126	0.00849693	-8.20898	0
71.8226	0.00821056	-6.01042	0
71.8444	0.00870693	-13.852	0
71.851	0.00857329	-5.08508	0
71.8816	0.00933693	-22.2837	0
71.8884	0.00800056	-17.0592	0
71.919	0.00826783	-16.3125	0
71.9262	0.00866874	-15.9647	0
71.9556	0.00861147	-9.05291	0
71.9626	0.00861147	-11.1726	0
71.9926	0.00857329	-7.25502	0
72.0002	0.00872602	-12.2735	0
72.0288	0.00859238	-6.16878	0
72.0354	0.00868784	-8.40104	0
72.0668	0.00656873	-6.79076	0
72.0738	0.00868784	-18.6307	0
72.1026	0.00866874	-9.00522	0
72.1098	0.00887875	-5.81581	0
72.1392	0.00868784	-19.7061	0
72.1462	0.00864965	-12.8611	0
72.1776	0.00822965	-7.92025	0
72.1842	0.0085542	-4.92482	0
72.2138	0.00922238	-15.2053	0
72.221	0.0087642	-8.85131	0
72.2504	0.00887875	-17.6462	0
72.2574	0.00870693	-7.78479	0
72.2882	0.00924148	-9.36136	0
72.2952	0.00912693	-10.4024	0
72.3256	0.0110551	-12.2792	0
72.3326	0.00866874	-15.2174	0
72.3628	0.00857329	-8.1333	0
72.3706	0.00861147	-6.12744	0
72.3988	0.00863056	-15.2492	0
72.4292	0.00811511	-12.0261	0
72.4358	0.0113988	-6.00025	0
72.4664	0.00882147	-17.7727	0
72.473	0.00861147	-11.137	0
72.5032	0.00866874	-10.9799	0
72.5098	0.00851602	-12.7638	0
72.5398	0.00838238	-8.41503	0
72.5478	0.00914602	-13.52	0
72.5766	0.00870693	-21.3278	0
72.584	0.00849693	-13.5715	0
72.62	0.00851602	-5.48956	0
72.6282	0.00992875	-9.25833	0
72.6564	0.00870693	-17.6926	0
72.663	0.00840147	-19.3995	0
72.6934	0.00872602	-6.65021	0
72.7	0.00878329	-13.5537	0
72.7306	0.00864965	-10.2695	0
72.7372	0.00807692	-8.29865	0
72.7672	0.00849693	-11.9351	0
72.7738	0.00811511	-23.7095	0
72.8046	0.00758056	-11.1408	0
72.8114	0.00895511	-8.21788	0
72.8418	0.00922238	-5.99325	0
72.8484	0.00798147	-16.2286	0
72.8786	0.00863056	-10.8756	0
72.8854	0.0083442	-13.2599	0
72.9152	0.0089742	-9.05101	0
72.9216	0.00989057	-9.45803	0
72.9522	0.00863056	-13.5416	0
72.959	0.00866874	-7.57237	0
72.9884	0.00851602	-8.67387	0
72.9962	0.00868784	-8.75019	0
73.0274	0.00840147	-5.37827	0
73.034	0.00843965	-7.27664	0
73.0644	0.00866874	-4.88984	0
73.0724	0.00882147	-15.791	0
73.1008	0.0087642	-19.9789	0
73.1076	0.00885966	-18.3273	0
73.1374	0.00866874	-23.0259	0
73.1442	0.00754237	-12.4967	0
73.174	0.00845874	-10.8635	0
73.1812	0.00809602	-8.99949	0
73.21	0.00851602	-21.0563	0
73.217	0.00851602	-9.54198	0
73.2464	0.00872602	-13.8469	0
73.2528	0.00857329	-7.07695	0
73.2836	0.00809602	-24.3347	0
73.2902	0.00885966	-19.1452	0
73.3196	0.00859238	-10.8909	0
73.3264	0.00868784	-8.8812	0
73.3562	0.00838238	-19.3678	0
73.363	0.00847783	-17.559	0
73.3938	0.00910784	-11.1046	0
73.401	0.00857329	-14.7258	0
73.4306	0.0083442	-11.5809	0
73.4382	0.00836329	-11.5364	0
73.4674	0.00861147	-19.6876	0
73.4738	0.0083442	-7.81913	0
73.5044	0.00905057	-20.454	0
73.511	0.00853511	-13.9493	0
73.5414	0.00864965	-16.3456	0
73.548	0.00952784	-9.65645	0
73.5784	0.00800056	-15.9723	0
73.608	0.00887875	-22.2602	0
73.615	0.00843965	-17.9686	0
73.652	0.00819147	-20.3014	0
73.6586	0.00895511	-26.0467	0
73.6892	0.00838238	-26.5466	0
73.6962	0.00803874	-33.6161	0
73.7258	0.00801965	-9.90512	0
73.7326	0.00880238	-9.41351	0
73.763	0.00849693	-14.9458	0
73.7694	0.0083442	-11.7367	0
73.7992	0.0087642	-16.794	0
73.8056	0.00885966	-26.6287	0
73.8368	0.00840147	-9.99034	0
73.8438	0.00832511	-22.6576	0
73.8738	0.00817238	-21.0359	0
73.8804	0.0083442	-20.2689	0
73.911	0.0087642	-21.4245	0
73.9174	0.00853511	-17.463	0
73.947	0.00889784	-25.8178	0
73.9542	0.00878329	-23.1505	0
73.9846	0.00842056	-14.6813	0
73.9918	0.00859238	-18.9181	0
74.0214	0.00941329	-13.8481	0
74.028	0.00842056	-20.1754	0
74.0584	0.00863056	-17.5794	0
74.0652	0.00874511	-29.4536	0
74.0954	0.00933693	-18.1435	0
74.1022	0.00811511	-16.4906	0
74.132	0.00882147	-13.7108	0
74.1384	0.00870693	-18.4252	0
74.1684	0.00845874	-23.0106	0
74.1752	0.0087642	-23.3464	0
74.2056	0.00817238	-30.5978	0
74.212	0.00922238	-27.4166	0
74.2422	0.0079242	-18.2713	0
74.2488	0.00895511	-21.8271	0
74.2792	0.00821056	-15.8922	0
74.2858	0.00838238	-22.8885	0
74.316	0.0101006	-17.6621	0
74.3232	0.00800056	-19.3442	0
74.3536	0.00843965	-18.4869	0
74.3602	0.00872602	-21.5886	0
74.3906	0.010196	-19.224	0
74.3972	0.00735147	-17.5578	0
74.4276	0.00857329	-30.5316	0
74.4342	0.00822965	-26.0665	0
74.4636	0.00838238	-22.5012	0
74.47	0.0081342	-24.991	0
74.5014	0.00870693	-19.0676	0
74.508	0.00836329	-19.9853	0
74.5384	0.00929875	-29.4021	0
74.5448	0.00868784	-25.365	0
74.5752	0.00996693	-23.9843	0
74.582	0.00910784	-22.5451	0
74.6118	0.00945148	-26.5606	0
74.6182	0.00903147	-30.9431	0
74.6482	0.00843965	-32.5724	0
74.6548	0.00927966	-29.4498	0
74.6932	0.0081342	-36.5193	0
74.6998	0.00870693	-39.7856	0
74.7296	0.00822965	-35.7529	0
74.7366	0.0083442	-36.5549	0
74.767	0.00872602	-41.9683	0
74.797	0.00906966	-35.5641	0
74.8038	0.00725601	-34.2781	0
74.834	0.00821056	-44.4384	0
74.8404	0.00899329	-45.5406	0
74.8716	0.00924148	-49.5962	0
74.8782	0.00931784	-44.8327	0
74.9086	0.00899329	-54.8989	0
74.915	0.0101006	-45.2824	0
74.945	0.00910784	-40.7663	0
74.9522	0.00889784	-38.3185	0
74.982	0.00884056	-42.8256	0
74.9888	0.00851602	-37.1171	0
75.0184	0.00838238	-35.9138	0
75.0248	0.00901238	-43.5347	0
75.0554	0.00843965	-43.5843	0
75.0618	0.00933693	-50.3771	0
75.0926	0.00756147	-66.5595	0
75.099	0.00842056	-55.2112	0
75.1294	0.00838238	-50.456	0
75.1358	0.0081342	-45.215	0
75.1658	0.00752328	-64.6643	0
75.1722	0.00843965	-59.2629	0
75.2028	0.00803874	-48.8037	0
75.2098	0.00826783	-42.2583	0
75.2392	0.00819147	-50.0509	0
75.246	0.00905057	-45.6824	0
75.2774	0.00849693	-58.8636	0
75.2842	0.0083442	-66.2625	0
75.3134	0.0103678	-48.1856	0
75.3202	0.00947057	-48.8934	0
75.3508	0.00809602	-46.5753	0
75.3572	0.00872602	-46.4583	0
75.3876	0.00941329	-58.8814	0
75.3946	0.00891693	-48.2263	0
75.4238	0.00864965	-55.1228	0
75.4302	0.00840147	-48.0031	0
75.4614	0.00851602	-55.884	0
75.4682	0.00861147	-51.885	0
75.4984	0.00874511	-53.4788	0
75.505	0.00857329	-77.8435	0
75.5354	0.00817238	-56.7191	0
75.542	0.00853511	-60.3778	0
75.5714	0.00830602	-45.9539	0
75.578	0.0083442	-47.9643	0
75.6092	0.00815329	-70.8224	0
75.6158	0.00885966	-90.4281	0
75.6456	0.00966148	-69.5046	0
75.653	0.00885966	-63.3243	0
75.6906	0.00885966	-75.2398	0
75.6978	0.0089742	-79.1988	0
75.7392	0.0085542	-56.2824	0
75.7456	0.00878329	-59.7119	0
75.7634	0.00870693	-55.538	0
75.77	0.00864965	-69.7394	0
75.8002	0.00853511	-79.9324	0
75.8066	0.00863056	-76.2611	0
75.8366	0.00849693	-68.1742	0
75.8432	0.00861147	-72.6663	0
75.8742	0.00864965	-67.6461	0
75.881	0.00887875	-72.4499	0
75.9112	0.00853511	-70.1975	0
75.9176	0.0085542	-80.2505	0
75.948	0.00853511	-68.9632	0
75.9786	0.00868784	-65.1265	0
75.985	0.00863056	-62.5115	0
76.0146	0.00773329	-62.7087	0
76.0214	0.00870693	-70.9611	0
76.0524	0.00872602	-70.1148	0
76.0588	0.00863056	-86.1869	0
76.089	0.00847783	-65.4192	0
76.0954	0.00853511	-68.0406	0
76.1264	0.00859238	-72.9208	0
76.1328	0.00905057	-66.8508	0
76.1628	0.00851602	-71.2537	0
76.1696	0.00849693	-68.1806	0
76.1992	0.00863056	-101.546	0
76.2058	0.00836329	-99.1858	0
76.2356	0.00857329	-82.2229	0
76.242	0.00895511	-87.4467	0
76.273	0.00866874	-82.2548	0
76.2794	0.00830602	-103.716	0
76.3094	0.00853511	-89.2409	0
76.3166	0.00843965	-95.6672	0
76.3464	0.00857329	-105.727	0
76.3528	0.00863056	-105.37	0
76.3824	0.00866874	-115.729	0
76.389	0.00866874	-112.477	0
76.4186	0.00838238	-103.506	0
76.4254	0.00851602	-109.563	0
76.4568	0.00826783	-89.101	0
76.4636	0.00864965	-109.786	0
76.493	0.00842056	-105.358	0
76.4996	0.00853511	-91.5633	0
76.5296	0.00859238	-108.972	0
76.536	0.00830602	-109.519	0
76.5666	0.00874511	-105.65	0
76.573	0.00857329	-102.373	0
76.6046	0.00843965	-100.547	0
76.6112	0.00840147	-84.1826	0
76.6412	0.00863056	-119.661	0
76.6476	0.00859238	-107.883	0
76.6784	0.00819147	-100.312	0
76.6848	0.00842056	-98.1168	0
76.7226	0.0083442	-117.472	0
76.729	0.0085542	-122.091	0
76.7596	0.00853511	-123.771	0
76.766	0.00847783	-120.494	0
76.7968	0.00847783	-119.056	0
76.8032	0.00851602	-110.091	0
76.8334	0.00853511	-111.008	0
76.8398	0.00843965	-109.449	0
76.8712	0.00878329	-112.732	0
76.8778	0.00884056	-108.036	0
76.9068	0.00874511	-127.321	0
76.9134	0.00880238	-157.69	0
76.9442	0.00840147	-145.41	0
76.951	0.00859238	-135.809	0
76.9804	0.00884056	-137.572	0
76.9868	0.00859238	-142.477	0
77.0184	0.00851602	-161.769	0
77.0248	0.0085542	-149.807	0
77.0546	0.00838238	-158.263	0
77.061	0.00861147	-144.908	0
77.0916	0.00887875	-145.404	0
77.0982	0.00880238	-149.82	0
77.128	0.00817238	-135.822	0
77.1578	0.00914602	-147.345	0
77.1646	0.00866874	-145.175	0
77.1942	0.00868784	-145.13	0
77.2006	0.00868784	-142.216	0
77.231	0.00864965	-156.176	0
77.2376	0.00842056	-144.38	0
77.2674	0.00878329	-157.302	0
77.2742	0.00849693	-166.922	0
77.3036	0.00843965	-149.069	0
77.3102	0.00861147	-156.92	0
77.34	0.00863056	-172.878	0
77.3466	0.00866874	-160.681	0
77.3764	0.00851602	-156.672	0
77.3828	0.00885966	-140.11	0
77.4132	0.00885966	-166.318	0
77.4196	0.00851602	-169.429	0
77.4502	0.00868784	-151.519	0
77.4566	0.00847783	-160.687	0
77.4874	0.00857329	-156.539	0
77.4938	0.00849693	-175.099	0
77.524	0.00851602	-168.857	0
77.5304	0.00838238	-154.216	0
77.5614	0.00878329	-190.14	0
77.5678	0.0087642	-169.213	0
77.5976	0.00884056	-161.476	0
77.6042	0.0087642	-162.698	0
77.6348	0.00874511	-178.98	0
77.6414	0.00853511	-188.078	0
77.6708	0.00863056	-204.596	0
77.6774	0.00878329	-183.434	0
77.7086	0.00870693	-191.845	0
77.7152	0.00866874	-185.183	0
77.7528	0.00861147	-174.43	0
77.7592	0.0089742	-176.479	0
77.79	0.00857329	-182.263	0
77.7968	0.00830602	-190.757	0
77.826	0.00849693	-178.604	0
77.8328	0.00836329	-199.467	0
77.8644	0.00870693	-191.113	0
77.8708	0.00832511	-192.176	0
77.9004	0.00866874	-187.175	0
77.9074	0.00836329	-191.12	0
77.9372	0.00878329	-194.765	0
77.9436	0.00866874	-206.085	0
77.974	0.00880238	-187.372	0
77.9804	0.00838238	-194.021	0
78.011	0.00849693	-220.28	0
78.0174	0.00863056	-232.776	0
78.0476	0.00878329	-219.37	0
78.054	0.00863056	-235.378	0
78.085	0.00866874	-233.291	0
78.0914	0.00859238	-214.75	0
78.1216	0.00849693	-217.626	0
78.1282	0.00863056	-213.491	0
78.158	0.00843965	-205.989	0
78.1644	0.00893602	-198.761	0
78.196	0.00853511	-235.696	0
78.2028	0.0085542	-214.127	0
78.2332	0.0087642	-240.379	0
78.2398	0.00857329	-211.595	0
78.2694	0.00853511	-210.239	0
78.2758	0.00845874	-216.15	0
78.306	0.00878329	-230.065	0
78.3366	0.00874511	-223.105	0
78.3434	0.00859238	-223.302	0
78.3744	0.00838238	-226.076	0
78.3808	0.00866874	-219.917	0
78.4108	0.00885966	-255.013	0
78.4172	0.00870693	-250.967	0
78.4474	0.00864965	-240.239	0
78.4538	0.00878329	-239.578	0
78.4844	0.00870693	-228.373	0
78.4908	0.00878329	-234.557	0
78.5216	0.00849693	-248.135	0
78.5282	0.00874511	-241.086	0
78.558	0.00822965	-233.908	0
78.5644	0.00859238	-224.937	0
78.5952	0.00884056	-254.523	0
78.6018	0.00845874	-245.158	0
78.6322	0.00868784	-252.468	0
78.6388	0.00853511	-250.636	0
78.6696	0.0085542	-259.594	0
78.6762	0.00864965	-271.034	0
78.706	0.00866874	-263.851	0
78.7124	0.00853511	-267.732	0
78.7432	0.00863056	-247.168	0
78.7496	0.00861147	-249.013	0
78.7872	0.00891693	-278.326	0
78.794	0.00868784	-268.006	0
78.825	0.00843965	-262.553	0
78.8314	0.00872602	-266.218	0
78.8616	0.00866874	-262.152	0
78.868	0.00874511	-269.794	0
78.8984	0.00872602	-272.04	0
78.905	0.00859238	-276.78	0
78.9346	0.00878329	-277.69	0
78.9412	0.00887875	-282.379	0
78.9722	0.00851602	-270.653	0
78.9786	0.00849693	-258.379	0
79.0086	0.00863056	-285.102	0
79.015	0.00843965	-273.847	0
79.0462	0.00857329	-268.356	0
79.0526	0.0085542	-280.928	0
79.0826	0.00859238	-281.17	0
79.089	0.00878329	-280.216	0
79.12	0.00842056	-271.467	0
79.1264	0.00857329	-281.526	0
79.1568	0.00861147	-286.477	0
79.1634	0.00859238	-300.894	0
79.1932	0.00868784	-295.715	0
79.2	0.00853511	-292.706	0
79.23	0.00857329	-303.433	0
79.2364	0.00866874	-302.021	0
79.2678	0.00845874	-297.077	0
79.2742	0.00884056	-299.278	0
79.3046	0.00843965	-301.028	0
79.311	0.00843965	-303.828	0
79.3414	0.00859238	-291.198	0
79.3482	0.00853511	-284.498	0
79.3782	0.00853511	-302.008	0
79.3846	0.00868784	-313.543	0
79.4152	0.0083442	-296.059	0
79.4216	0.0085542	-299.895	0
79.452	0.0087642	-289.219	0
79.4584	0.00861147	-296.033	0
79.4892	0.00864965	-298.897	0
79.519	0.00838238	-310.89	0
79.5254	0.00832511	-311.533	0
79.5556	0.00868784	-310.903	0
79.562	0.00842056	-321.229	0
79.5922	0.00851602	-305.367	0
79.5986	0.00853511	-313.518	0
79.6294	0.00863056	-330.169	0
79.6358	0.00889784	-317.291	0
79.6666	0.00843965	-333.592	0
79.6732	0.00882147	-320.943	0
79.7032	0.00861147	-324.449	0
79.7098	0.00874511	-329.234	0
79.7398	0.00872602	-329.698	0
79.7464	0.00864965	-333.229	0
79.7768	0.00859238	-329.558	0
79.7834	0.00866874	-318.627	0
79.821	0.00842056	-326.727	0
79.8274	0.0083442	-332.339	0
79.858	0.00870693	-340.915	0
79.8644	0.00872602	-333.369	0
79.8948	0.00880238	-335.17	0
79.9016	0.00863056	-336.15	0
79.931	0.00859238	-320.11	0
79.9376	0.00895511	-333.452	0
79.9684	0.00864965	-344.23	0
79.9748	0.00874511	-339.477	0
80.0058	0.00866874	-339.796	0
80.0126	0.00847783	-344.962	0
80.0418	0.00868784	-342.341	0
80.0482	0.00884056	-338.873	0
80.0784	0.00845874	-331.95	0
80.0848	0.00861147	-334.992	0
80.1152	0.00826783	-329.698	0
80.1216	0.0085542	-339.153	0
80.1518	0.00849693	-349.677	0
80.1582	0.00853511	-357.732	0
80.1878	0.00843965	-352.502	0
80.1946	0.00851602	-347.113	0
80.2248	0.00870693	-350.173	0
80.2312	0.00868784	-349.639	0
80.2614	0.00878329	-359.323	0
80.2678	0.00870693	-347.889	0
80.299	0.00849693	-371.94	0
80.3054	0.00872602	-365.838	0
80.3356	0.00861147	-371.462	0
80.342	0.00830602	-352.171	0
80.372	0.00864965	-368.224	0
80.3784	0.00884056	-364.903	0
80.4096	0.00853511	-369.038	0
80.416	0.00870693	-366.309	0
80.4456	0.00853511	-364.285	0
80.4522	0.00840147	-369.204	0
80.4828	0.00859238	-377.494	0
80.4892	0.00874511	-386.854	0
80.5192	0.00847783	-382.705	0
80.5258	0.00851602	-374.828	0
80.5562	0.0085542	-366.468	0
80.5626	0.00889784	-375.306	0
80.5936	0.00864965	-366.181	0
80.6004	0.00870693	-365.908	0
80.6306	0.00842056	-378.022	0
80.6372	0.00861147	-393.006	0
80.6674	0.00849693	-388.533	0
80.6974	0.00866874	-387.057	0
80.7038	0.00864965	-393.604	0
80.7338	0.00859238	-386.147	0
80.7402	0.00884056	-389.144	0
80.771	0.00878329	-404.555	0
80.7774	0.00859238	-400.457	0
80.8078	0.00891693	-389.901	0
80.8142	0.00872602	-386.065	0
80.8518	0.0085542	-399.299	0
80.8582	0.00853511	-397.524	0
80.8882	0.00868784	-407.685	0
80.8948	0.00868784	-407.723	0
80.9258	0.00859238	-411.254	0
80.9322	0.00864965	-408.487	0
80.9622	0.00864965	-416.866	0
80.969	0.00849693	-409.479	0
80.9996	0.00870693	-420.086	0
81.006	0.00861147	-417.681	0
81.0362	0.00859238	-421.314	0
81.043	0.00864965	-411.942	0
81.0728	0.00857329	-424.018	0
81.0794	0.00857329	-418.19	0
81.1102	0.00853511	-414.27	0
81.1166	0.00868784	-415.008	0
81.146	0.00842056	-419.176	0
81.1524	0.0085542	-418.024	0
81.183	0.0087642	-424.037	0
81.1894	0.00863056	-421.352	0
81.2196	0.00866874	-436.578	0
81.226	0.00882147	-426.69	0
81.2568	0.00863056	-437.914	0
81.2634	0.00868784	-432.531	0
81.2936	0.00861147	-426.862	0
81.3002	0.00866874	-429.229	0
81.3308	0.00861147	-434.574	0
81.3372	0.00853511	-433.492	0
81.3672	0.00872602	-438.582	0
81.3738	0.0085542	-432.099	0
81.4052	0.00874511	-444.716	0
81.4118	0.00843965	-435.662	0
81.4414	0.00849693	-426.226	0
81.4478	0.00859238	-441.655	0
81.4784	0.00845874	-439.486	0
81.4848	0.00870693	-442.164	0
81.5148	0.00863056	-433.581	0
81.5212	0.0087642	-435.401	0
81.5526	0.00859238	-442.89	0
81.559	0.00857329	-454.622	0
81.589	0.00853511	-447.375	0
81.5956	0.00868784	-448.088	0
81.626	0.00845874	-461.239	0
81.6326	0.00863056	-464.503	0
81.6624	0.00864965	-457.562	0
81.669	0.00859238	-461.15	0
81.6998	0.00868784	-468.385	0
81.7062	0.00872602	-466.571	0
81.736	0.00843965	-467.939	0
81.7424	0.00851602	-468.111	0
81.7734	0.00872602	-466.228	0
81.7802	0.00857329	-472.196	0
81.8102	0.00857329	-477.108	0
81.8168	0.00853511	-470.014	0
81.8546	0.00863056	-478.959	0
81.8842	0.00851602	-485.118	0
81.8906	0.00878329	-477.401	0
81.9212	0.00859238	-491.335	0
81.9276	0.00880238	-486.9	0
81.9576	0.0085542	-490.088	0
81.964	0.00861147	-491.857	0
81.9954	0.00851602	-507.916	0
82.0018	0.00840147	-492.728	0
82.032	0.0087642	-494.217	0
82.0384	0.00878329	-497.106	0
82.0692	0.00874511	-498.556	0
82.0756	0.0087642	-507.458	0
82.1056	0.00853511	-512.306	0
82.1122	0.00853511	-511.161	0
82.142	0.00863056	-514.062	0
82.1484	0.0085542	-521.799	0
82.1788	0.00853511	-522.836	0
82.1852	0.00870693	-525.451	0
82.2158	0.00853511	-519.477	0
82.2222	0.00884056	-517.218	0
82.2524	0.00872602	-529.803	0
82.2588	0.00872602	-520.686	0
82.2888	0.00849693	-525.712	0
82.2952	0.00863056	-519.031	0
82.3254	0.00853511	-527.487	0
82.332	0.00851602	-532.126	0
82.3626	0.00840147	-545.029	0
82.369	0.0085542	-543.712	0
82.3996	0.00861147	-548.408	0
82.406	0.00868784	-558.41	0
82.4366	0.00864965	-541.25	0
82.4432	0.00830602	-557.137	0
82.4724	0.0085542	-548.09	0
82.4788	0.00863056	-545.252	0
82.5102	0.00849693	-544.418	0
82.5166	0.00857329	-555.769	0
82.5464	0.00884056	-566.07	0
82.5528	0.00847783	-574.355	0
82.5552	0.00836329	-573.139	1