File: EXPERIMENTAL/DATA/Electrochemical-cycling/S-series/2024-06-25_S15_Icell_t1800_C0030_J01_deltaX-110,2mm_02_MB_C04.txt
time/s	Ewe/V	I/mA	error
60.053	2.93585	-0.0250249	0
60.1432	0.00936545	-9.76591	0
60.1436	0.0092509	-9.70545	0
60.144	0.00934635	-9.6464	0
60.1444	0.00926999	-9.58664	0
60.1448	0.00930818	-9.52835	0
60.1452	0.0092509	-9.47057	0
60.1456	0.0092509	-9.41393	0
60.146	0.00940363	-9.35819	0
60.1464	0.00932727	-9.30212	0
60.1468	0.00923181	-9.24682	0
60.1472	0.00938454	-9.19286	0
60.1476	0.00930818	-9.13845	0
60.148	0.00938454	-9.08417	0
60.1484	0.00926999	-9.03154	0
60.1488	0.00940363	-8.97993	0
60.1492	0.00944181	-8.9273	0
60.1496	0.00923181	-8.87601	0
60.15	0.00930818	-8.82529	0
60.1504	0.00932727	-8.77515	0
60.1508	0.00936545	-8.725	0
60.1514	0.0092509	-8.65213	0
60.152	0.00930818	-8.57902	0
60.1526	0.00936545	-8.50813	0
60.1532	0.00926999	-8.43749	0
60.1538	0.00928908	-8.36825	0
60.1544	0.00934635	-8.30048	0
60.155	0.00930818	-8.23321	0
60.1556	0.00938454	-8.16716	0
60.1562	0.00926999	-8.1018	0
60.1568	0.00932727	-8.03791	0
60.1574	0.00932727	-7.97428	0
60.158	0.00932727	-7.91236	0
60.1586	0.00926999	-7.85082	0
60.1592	0.00932727	-7.78973	0
60.1598	0.00930818	-7.73131	0
60.1604	0.00932727	-7.67232	0
60.161	0.00944181	-7.61454	0
60.1616	0.00936545	-7.55631	0
60.1622	0.00940363	-7.50031	0
60.1628	0.00934635	-7.44552	0
60.1634	0.00926999	-7.39155	0
60.164	0.00936545	-7.33721	0
60.1646	0.00930818	-7.28515	0
60.1652	0.00928908	-7.23259	0
60.1658	0.00936545	-7.18136	0
60.1664	0.00938454	-7.12994	0
60.1672	0.00930818	-7.06357	0
60.168	0.00926999	-6.99898	0
60.1688	0.00934635	-6.93471	0
60.1696	0.0092509	-6.87234	0
60.1704	0.00926999	-6.81049	0
60.1712	0.00932727	-6.74997	0
60.172	0.00932727	-6.69079	0
60.1728	0.00944181	-6.63249	0
60.1736	0.00947999	-6.57535	0
60.1744	0.00928908	-6.51884	0
60.1752	0.00938454	-6.46316	0
60.176	0.00923181	-6.40996	0
60.1768	0.00936545	-6.35618	0
60.1776	0.00932727	-6.3033	0
60.1784	0.0092509	-6.25316	0
60.1792	0.00932727	-6.20244	0
60.18	0.00930818	-6.15089	0
60.181	0.00938454	-6.09063	0
60.182	0.00928908	-6.03106	0
60.183	0.0092509	-5.97328	0
60.184	0.00936545	-5.91474	0
60.185	0.00938454	-5.85886	0
60.186	0.00934635	-5.80369	0
60.187	0.00942272	-5.74922	0
60.188	0.00926999	-5.69691	0
60.189	0.00936545	-5.64441	0
60.19	0.00942272	-5.59267	0
60.1912	0.00928908	-5.53241	0
60.1924	0.00928908	-5.47392	0
60.1936	0.00928908	-5.41722	0
60.1948	0.00938454	-5.36116	0
60.196	0.00940363	-5.30656	0
60.1972	0.00932727	-5.25215	0
60.1984	0.00930818	-5.1992	0
60.1996	0.00944181	-5.14728	0
60.2008	0.00940363	-5.09681	0
60.2022	0.0092509	-5.03992	0
60.2036	0.00932727	-4.98303	0
60.205	0.00940363	-4.92779	0
60.2064	0.00928908	-4.87497	0
60.2078	0.00938454	-4.8212	0
60.2092	0.00934635	-4.76953	0
60.2108	0.00936545	-4.71334	0
60.2124	0.00944181	-4.65715	0
60.214	0.00938454	-4.60223	0
60.2156	0.00926999	-4.55011	0
60.2172	0.00932727	-4.49774	0
60.2188	0.00936545	-4.44714	0
60.2206	0.00928908	-4.39203	0
60.2224	0.00930818	-4.33782	0
60.2242	0.00938454	-4.28525	0
60.226	0.00938454	-4.23402	0
60.228	0.00944181	-4.17885	0
60.23	0.00938454	-4.12482	0
60.232	0.00936545	-4.07309	0
60.234	0.00932727	-4.02231	0
60.236	0.00930818	-3.97171	0
60.2382	0.00936545	-3.91851	0
60.2404	0.00932727	-3.86722	0
60.2426	0.00938454	-3.81657	0
60.245	0.00932727	-3.76368	0
60.2474	0.00934635	-3.71176	0
60.2498	0.00932727	-3.66174	0
60.2524	0.00944181	-3.60809	0
60.255	0.00940363	-3.55706	0
60.2578	0.0094609	-3.50392	0
60.2606	0.00938454	-3.45142	0
60.2634	0.00936545	-3.40121	0
60.2664	0.0092509	-3.34877	0
60.2694	0.00938454	-3.29825	0
60.2724	0.00938454	-3.24721	0
60.2756	0.00936545	-3.19668	0
60.2788	0.00928908	-3.14647	0
60.2822	0.00942272	-3.09556	0
60.2858	0.00938454	-3.04357	0
60.2894	0.00930818	-2.99304	0
60.2932	0.00938454	-2.94035	0
60.297	0.00930818	-2.89027	0
60.301	0.00938454	-2.83936	0
60.3052	0.00921272	-2.78858	0
60.3094	0.00928908	-2.7385	0
60.314	0.00928908	-2.6858	0
60.3188	0.00940363	-2.63337	0
60.3236	0.00932727	-2.58335	0
60.3286	0.00934635	-2.53263	0
60.3338	0.00934635	-2.48191	0
60.3392	0.00936545	-2.43177	0
60.345	0.00923181	-2.3799	0
60.351	0.00940363	-2.32918	0
60.3572	0.00938454	-2.27904	0
60.3636	0.00934635	-2.22902	0
60.3704	0.00944181	-2.17824	0
60.3778	0.00926999	-2.12714	0
60.3854	0.00934635	-2.07534	0
60.3936	0.00940363	-2.02347	0
60.4022	0.00936545	-1.97205	0
60.411	0.00940363	-1.92204	0
60.4202	0.00932727	-1.87164	0
60.4302	0.00932727	-1.82073	0
60.4406	0.00936545	-1.76988	0
60.4516	0.00938454	-1.71923	0
60.4632	0.00930818	-1.66921	0
60.4756	0.00938454	-1.61881	0
60.4888	0.00934635	-1.5686	0
60.5026	0.00934635	-1.5182	0
60.5176	0.00942272	-1.46792	0
60.5336	0.00934635	-1.4174	0
60.5504	0.00936545	-1.36731	0
60.5688	0.00930818	-1.31621	0
60.5884	0.00942272	-1.26613	0
60.6094	0.00938454	-1.21567	0
60.6314	0.0094609	-1.16539	0
60.656	0.00944181	-1.11531	0
60.6818	0.00934635	-1.06529	0
60.7106	0.00932727	-1.0147	0
60.7422	0.00928908	-0.964494	0
60.7762	0.00928908	-0.914411	0
60.813	0.00936545	-0.864393	0
60.8542	0.00930818	-0.814247	0
60.8996	0.00921272	-0.764101	0
60.9508	0.00934635	-0.713765	0
61.0086	0.00921272	-0.663364	0
61.0728	0.00936545	-0.613155	0
61.1478	0.00923181	-0.563136	0
61.2348	0.00928908	-0.512991	0
61.337	0.00930818	-0.462527	0
61.4756	0.00934635	-0.407134	0
61.6288	0.00930818	-0.357128	0
61.8244	0.00932727	-0.30704	0
62.0834	0.00940363	-0.256958	0
62.4514	0.00932727	-0.206953	0
63.0208	0.00942272	-0.156782	0
64.0468	0.00932727	-0.106763	0
66.5148	0.00942272	-0.056707	0
76.5148	0.00938454	-0.0166962	0
86.5148	0.00938454	-0.00911896	0
96.5148	0.00942272	-0.0062312	0
106.515	0.00919363	-0.00483853	0
116.515	0.00936545	-0.00389022	0
126.515	0.00944181	-0.00329999	0
136.515	0.00938454	-0.00288279	0
146.515	0.00934635	-0.00261002	0
156.515	0.00932727	-0.00236239	0
166.515	0.00938454	-0.00219204	0
176.515	0.00932727	-0.00208936	0
186.515	0.00928908	-0.0018772	0
196.515	0.00936545	-0.00179412	0
206.515	0.00938454	-0.00171118	0
216.515	0.00936545	-0.00161378	0
226.515	0.00932727	-0.00154688	0
236.515	0.00944181	-0.00149691	0
246.515	0.00942272	-0.00143924	0
256.515	0.00940363	-0.00137711	0
266.515	0.00942272	-0.00136679	0
276.515	0.00926999	-0.00128525	0
286.515	0.00938454	-0.00127952	0
296.515	0.00938454	-0.00120937	0
306.515	0.00921272	-0.00119511	0
316.515	0.00942272	-0.00115609	0
326.515	0.00932727	-0.00112356	0
336.515	0.00934635	-0.00112878	0
346.515	0.00938454	-0.00110045	0
356.515	0.0092509	-0.00105799	0
366.515	0.00930818	-0.00106226	0
376.515	0.00932727	-0.00101802	0
386.515	0.00926999	-0.00100051	0
396.515	0.00934635	-0.000982051	0
406.515	0.0094609	-0.000952387	0
416.515	0.00934635	-0.000931698	0
426.515	0.00942272	-0.000926478	0
436.515	0.00934635	-0.000930744	0
446.515	0.00928908	-0.000930043	0
456.515	0.0092509	-0.000887457	0
466.515	0.00936545	-0.000885865	0
476.515	0.00936545	-0.000877081	0
486.515	0.00926999	-0.000836404	0
496.515	0.00930818	-0.000825646	0
506.515	0.00942272	-0.000828447	0
516.515	0.00928908	-0.000813678	0
526.515	0.00940363	-0.000803048	0
536.515	0.00936545	-0.000822972	0
546.515	0.00940363	-0.000801011	0
556.515	0.00942272	-0.000778221	0
566.515	0.00940363	-0.000786433	0
576.515	0.00936545	-0.00077071	0
586.515	0.00934635	-0.000767145	0
596.515	0.0094609	-0.000754541	0
606.515	0.00944181	-0.000737417	0
616.515	0.00932727	-0.000714246	0
626.515	0.00938454	-0.000718957	0
636.515	0.00938454	-0.000708708	0
646.515	0.00921272	-0.000707944	0
656.515	0.00940363	-0.000698841	0
666.515	0.00940363	-0.000675479	0
676.515	0.00928908	-0.0006835	0
686.515	0.00926999	-0.000667395	0
696.515	0.00944181	-0.000669559	0
706.515	0.00938454	-0.000667522	0
716.515	0.00930818	-0.000645178	0
726.515	0.00938454	-0.00064817	0
736.515	0.00942272	-0.000667458	0
746.515	0.00934635	-0.000646069	0
756.515	0.00923181	-0.00065199	0
766.515	0.00936545	-0.000615641	0
776.515	0.00936545	-0.000621753	0
786.515	0.00936545	-0.00063633	0
796.515	0.00930818	-0.000629837	0
806.515	0.00928908	-0.000620734	0
816.515	0.00940363	-0.0006003	0
826.515	0.00938454	-0.000611695	0
836.515	0.00932727	-0.00061806	0
846.515	0.00942272	-0.000568344	0
856.515	0.00940363	-0.000604438	0
866.515	0.00930818	-0.000586741	0
876.515	0.00934635	-0.000582922	0
886.515	0.00944181	-0.000593616	0
896.515	0.00934635	-0.000574837	0
906.515	0.00934635	-0.000546064	0
916.515	0.00930818	-0.000573882	0
926.515	0.00942272	-0.000565607	0
936.515	0.00940363	-0.000538871	0
946.515	0.00928908	-0.000531678	0
956.515	0.00936545	-0.000555677	0
966.515	0.00940363	-0.000552303	0
976.515	0.00936545	-0.000528495	0
986.515	0.00951817	-0.000529386	0
996.515	0.00934635	-0.00052302	0
1006.51	0.00934635	-0.000543964	0
1016.51	0.00930818	-0.00053989	0
1026.51	0.00938454	-0.000518564	0
1036.51	0.00940363	-0.000531232	0
1046.51	0.00938454	-0.000495584	0
1056.51	0.00926999	-0.000474514	0
1066.51	0.00940363	-0.000514108	0
1076.51	0.0094609	-0.000493802	0
1086.51	0.00936545	-0.00050004	0
1096.51	0.00934635	-0.000494311	0
1106.51	0.00932727	-0.00050074	0
1116.51	0.00938454	-0.000474068	0
1126.51	0.00930818	-0.000478524	0
1136.51	0.00934635	-0.000498067	0
1146.51	0.00928908	-0.000493229	0
1156.51	0.00940363	-0.000470312	0
1166.51	0.00930818	-0.000489346	0
1176.51	0.00928908	-0.00050125	0
1186.51	0.00926999	-0.000479797	0
1196.51	0.00940363	-0.000483553	0
1206.51	0.00938454	-0.000441667	0
1216.51	0.00928908	-0.000437975	0
1226.51	0.0092509	-0.000463437	0
1236.51	0.00930818	-0.00047515	0
1246.51	0.00930818	-0.00044746	0
1256.51	0.00947999	-0.000451979	0
1266.51	0.00923181	-0.000480179	0
1276.51	0.00930818	-0.00044956	0
1286.51	0.00942272	-0.000433009	0
1296.51	0.00936545	-0.00045599	0
1306.51	0.00934635	-0.000428299	0
1316.51	0.00940363	-0.000427981	0
1326.51	0.00944181	-0.000429381	0
1336.51	0.00938454	-0.000399462	0
1346.51	0.00934635	-0.000420533	0
1356.51	0.00934635	-0.000435237	0
1366.51	0.00926999	-0.000421933	0
1376.51	0.00932727	-0.000427535	0
1386.51	0.00936545	-0.000423079	0
1396.51	0.0092509	-0.000433455	0
1406.51	0.00940363	-0.000410348	0
1416.51	0.00944181	-0.000401881	0
1426.51	0.00936545	-0.000412576	0
1436.51	0.00930818	-0.000415758	0
1446.51	0.00938454	-0.000398507	0
1456.51	0.00936545	-0.000398189	0
1466.51	0.00934635	-0.000395515	0
1476.51	0.00930818	-0.000407356	0
1486.51	0.00934635	-0.00039176	0
1496.51	0.00934635	-0.000384375	0
1506.51	0.00942272	-0.000390614	0
1516.51	0.00930818	-0.000390105	0
1526.51	0.00938454	-0.000396216	0
1536.51	0.00944181	-0.000400608	0
1546.51	0.00940363	-0.000385394	0
1556.51	0.00928908	-0.000376673	0
1566.51	0.00921272	-0.000384821	0
1576.51	0.00940363	-0.000379283	0
1586.51	0.00934635	-0.000382529	0
1596.51	0.00932727	-0.00038393	0
1606.51	0.00932727	-0.000364196	0
1616.51	0.00936545	-0.000368143	0
1626.51	0.00926999	-0.000367825	0
1636.51	0.00944181	-0.000392014	0
1646.51	0.00940363	-0.000373172	0
1656.51	0.00940363	-0.000363241	0
1666.51	0.00934635	-0.000358594	0
1676.51	0.00926999	-0.000373363	0
1686.51	0.00936545	-0.000352993	0
1696.51	0.00928908	-0.000376355	0
1706.51	0.00930818	-0.000348791	0
1716.51	0.00921272	-0.000346436	0
1726.51	0.00932727	-0.000347327	0
1736.51	0.0092509	-0.000339688	0
1746.51	0.00934635	-0.000354457	0
1756.51	0.00936545	-0.000343699	0
1766.51	0.00928908	-0.000352292	0
1776.51	0.00940363	-0.000338479	0
1786.51	0.00936545	-0.00033746	0
1796.51	0.00934635	-0.000315817	0
1806.51	0.00932727	-0.000329248	0
1816.51	0.00932727	-0.000350192	0
1826.51	0.00932727	-0.000337206	0
1836.51	0.00934635	-0.000350446	0
1846.51	0.00934635	-0.000329503	0
1856.51	0.00928908	-0.000345863	0
1860.05	0.00930818	-0.000336442	0