File: EXPERIMENTAL/DATA/Electrochemical-cycling/S-series/2024-06-19_S06_Icell_t1800_C0001_J01_02_MB_C10.txt
time/s	Ewe/V	I/mA	error	Ece/V
60.053	2.82912	-0.0250155	0	-0.00139481
60.1432	0.00851602	-6.30817	0	-2.34761e-05
60.1438	0.00863056	-6.24967	0	-4.25666e-05
60.1444	0.00870693	-6.19327	0	7.19764e-05
60.145	0.00864965	-6.13834	0	-8.07476e-05
60.1456	0.00868784	-6.08455	0	0.000110157
60.1462	0.00864965	-6.03217	0	-8.07476e-05
60.1468	0.00866874	-5.98132	0	-2.34761e-05
60.1474	0.00872602	-5.93066	0	-2.34761e-05
60.1482	0.00864965	-5.86655	0	5.28859e-05
60.149	0.00857329	-5.80423	0	-6.16571e-05
60.1498	0.00863056	-5.74286	0	-4.25666e-05
60.1506	0.00868784	-5.68322	0	1.47049e-05
60.1514	0.00861147	-5.62657	0	-4.25666e-05
60.1522	0.00861147	-5.57093	0	3.37954e-05
60.153	0.00853511	-5.51658	0	-2.34761e-05
60.1538	0.00863056	-5.46356	0	7.19764e-05
60.1546	0.00857329	-5.4127	0	7.19764e-05
60.1554	0.00859238	-5.36236	0	1.47049e-05
60.1564	0.00866874	-5.30208	0	0.000186519
60.1574	0.00878329	-5.24364	0	7.19764e-05
60.1584	0.00859238	-5.18725	0	0.000110157
60.1594	0.0085542	-5.13232	0	1.47049e-05
60.1604	0.00864965	-5.07853	0	5.28859e-05
60.1614	0.00874511	-5.02679	0	1.47049e-05
60.1624	0.00866874	-4.97625	0	0.000148338
60.1636	0.0085542	-4.91731	0	0.000110157
60.1648	0.00863056	-4.85932	0	-6.16571e-05
60.166	0.00863056	-4.80522	0	-4.38561e-06
60.1672	0.00868784	-4.7515	0	1.47049e-05
60.1684	0.00870693	-4.69867	0	-9.98381e-05
60.1698	0.00866874	-4.6417	0	-2.34761e-05
60.1712	0.00861147	-4.58511	0	5.28859e-05
60.1726	0.00861147	-4.53044	0	0.000167429
60.174	0.0087642	-4.47742	0	1.47049e-05
60.1754	0.00857329	-4.42618	0	-4.38561e-06
60.177	0.00874511	-4.36934	0	-4.38561e-06
60.1786	0.00861147	-4.31485	0	0.000167429
60.1802	0.00849693	-4.2626	0	3.37954e-05
60.1818	0.00863056	-4.21098	0	0.000129248
60.1836	0.00868784	-4.15599	0	0.000129248
60.1854	0.00866874	-4.1024	0	-4.38561e-06
60.1872	0.00851602	-4.05091	0	1.47049e-05
60.189	0.00866874	-4.00082	0	-6.16571e-05
60.191	0.00849693	-3.94716	0	-4.38561e-06
60.193	0.00868784	-3.89554	0	-4.38561e-06
60.1952	0.00861147	-3.84068	0	3.37954e-05
60.1974	0.00847783	-3.78842	0	1.47049e-05
60.1996	0.00861147	-3.73725	0	0.000110157
60.202	0.00870693	-3.68417	0	7.19764e-05
60.2044	0.00866874	-3.63262	0	1.47049e-05
60.207	0.00864965	-3.5782	0	-8.07476e-05
60.2096	0.00866874	-3.52696	0	-4.25666e-05
60.2124	0.00864965	-3.47254	0	0.000129248
60.2152	0.00857329	-3.42169	0	9.10669e-05
60.2182	0.00868784	-3.36886	0	7.19764e-05
60.2212	0.0085542	-3.31718	0	7.19764e-05
60.2244	0.00868784	-3.26499	0	3.37954e-05
60.2276	0.00864965	-3.21465	0	-0.000118929
60.231	0.00874511	-3.16335	0	3.37954e-05
60.2344	0.00859238	-3.11313	0	9.10669e-05
60.238	0.00866874	-3.06285	0	0.000110157
60.2418	0.00859238	-3.01277	0	-6.16571e-05
60.2458	0.00861147	-2.96134	0	7.19764e-05
60.2498	0.00864965	-2.91042	0	5.28859e-05
60.2542	0.00878329	-2.85791	0	-2.34761e-05
60.2588	0.00866874	-2.80553	0	-2.34761e-05
60.2634	0.00859238	-2.75538	0	-8.07476e-05
60.2682	0.00863056	-2.70421	0	3.37954e-05
60.2734	0.00864965	-2.65215	0	0.000167429
60.2788	0.00857329	-2.59957	0	-8.07476e-05
60.2842	0.00872602	-2.54942	0	5.28859e-05
60.29	0.00861147	-2.49895	0	0.000129248
60.296	0.00863056	-2.44791	0	3.37954e-05
60.3022	0.00864965	-2.39757	0	9.10669e-05
60.3088	0.00864965	-2.34627	0	5.28859e-05
60.3158	0.00866874	-2.29503	0	1.47049e-05
60.323	0.00863056	-2.24456	0	3.37954e-05
60.3306	0.00874511	-2.19307	0	-6.16571e-05
60.3388	0.00853511	-2.14165	0	-9.98381e-05
60.347	0.00866874	-2.0913	0	7.19764e-05
60.3558	0.00868784	-2.04077	0	-9.98381e-05
60.365	0.00853511	-1.98966	0	0.000129248
60.3748	0.00861147	-1.93919	0	9.10669e-05
60.385	0.00870693	-1.88853	0	-8.07476e-05
60.396	0.00864965	-1.83768	0	3.37954e-05
60.4076	0.00872602	-1.78708	0	3.37954e-05
60.4198	0.00864965	-1.73668	0	5.28859e-05
60.4328	0.00864965	-1.68589	0	9.10669e-05
60.4466	0.00866874	-1.63586	0	3.37954e-05
60.4612	0.00863056	-1.58527	0	5.28859e-05
60.4768	0.00874511	-1.5346	0	-4.25666e-05
60.4936	0.00866874	-1.48401	0	1.47049e-05
60.5116	0.00872602	-1.43386	0	-4.38561e-06
60.5308	0.00874511	-1.38326	0	3.37954e-05
60.5516	0.00870693	-1.33292	0	5.28859e-05
60.5738	0.00870693	-1.2827	0	0.000148338
60.5984	0.00870693	-1.23172	0	5.28859e-05
60.6252	0.00863056	-1.1817	0	-4.25666e-05
60.6536	0.00868784	-1.13161	0	-0.000138019
60.6858	0.00861147	-1.08088	0	-4.25666e-05
60.7204	0.00872602	-1.03041	0	0.000129248
60.759	0.00861147	-0.980072	0	0.000110157
60.8014	0.00863056	-0.929793	0	7.19764e-05
60.8494	0.00864965	-0.879705	0	3.37954e-05
60.9034	0.00861147	-0.829299	0	-4.38561e-06
60.964	0.00866874	-0.779275	0	3.37954e-05
61.0354	0.00864965	-0.728741	0	-4.38561e-06
61.1098	0.00859238	-0.678271	0	-2.34761e-05
61.2092	0.00868784	-0.627865	0	3.37954e-05
61.3232	0.00872602	-0.577714	0	5.28859e-05
61.4616	0.00857329	-0.527435	0	3.37954e-05
61.6358	0.00859238	-0.477283	0	0.000186519
61.8768	0.00866874	-0.427223	0	-9.98381e-05
62.1894	0.00866874	-0.377189	0	-2.34761e-05
62.605	0.0085542	-0.327084	0	1.47049e-05
63.2302	0.00874511	-0.277075	0	5.28859e-05
64.2642	0.00868784	-0.227034	0	5.28859e-05
66.3172	0.00864965	-0.177	0	-4.38561e-06
71.8392	0.00878329	-0.126997	0	-4.38561e-06
81.8392	0.00866874	-0.0947478	0	3.37954e-05
87.2144	0.00803874	-0.0423334	0	0.000129248
97.2144	0.00861147	-0.0714709	0	1.47049e-05
107.214	0.00857329	-0.0648022	0	3.37954e-05
117.214	0.00866874	-0.0604624	0	1.47049e-05
127.214	0.00851602	-0.0562881	0	1.47049e-05
137.214	0.0087642	-0.0532846	0	-8.07476e-05
147.214	0.00864965	-0.0506438	0	1.47049e-05
157.214	0.00866874	-0.0488819	0	1.47049e-05
167.214	0.00872602	-0.0458769	0	0.000167429
177.214	0.00870693	-0.0453978	0	7.19764e-05
187.214	0.00870693	-0.0438702	0	-6.16571e-05
197.214	0.00868784	-0.0425754	0	9.10669e-05
200.922	0.0103678	-0.0969089	0	0.000129248
200.959	0.00866874	-0.0428997	0	3.37954e-05
210.959	0.00864965	-0.0401328	0	1.47049e-05
218.376	0.014167	-0.114961	0	7.19764e-05
218.407	0.00878329	-0.0583243	0	-0.0001762
228.407	0.00874511	-0.0393738	0	-2.34761e-05
238.407	0.00863056	-0.0384716	0	3.37954e-05
248.407	0.00870693	-0.0376692	0	7.19764e-05
258.407	0.00866874	-0.0369045	0	-8.07476e-05
268.407	0.00868784	-0.0362071	0	7.19764e-05
278.407	0.00864965	-0.0354926	0	-4.38561e-06
288.407	0.00872602	-0.0346292	0	0.000110157
298.407	0.00861147	-0.0340642	0	3.37954e-05
308.407	0.00868784	-0.033421	0	7.19764e-05
318.407	0.00866874	-0.0327994	0	-4.38561e-06
328.407	0.00863056	-0.0322636	0	3.37954e-05
338.407	0.00874511	-0.0323228	0	-4.38561e-06
348.407	0.0087642	-0.031761	0	0.000110157
358.407	0.00864965	-0.0314098	0	0.000110157
368.407	0.00870693	-0.0310121	0	-4.38561e-06
378.407	0.00872602	-0.0306056	0	-4.38561e-06
388.407	0.00868784	-0.0302671	0	3.37954e-05
398.407	0.00863056	-0.0299419	0	-2.34761e-05
408.407	0.00868784	-0.0293763	0	9.10669e-05
418.407	0.0087642	-0.0292389	0	-4.25666e-05
428.407	0.00866874	-0.028812	0	-0.000138019
438.407	0.00872602	-0.0285664	0	-2.34761e-05
448.407	0.00870693	-0.0283131	0	-6.16571e-05
458.407	0.00878329	-0.0278525	0	-6.16571e-05
468.407	0.00866874	-0.0283443	0	3.37954e-05
478.407	0.00868784	-0.0274663	0	7.19764e-05
488.407	0.00866874	-0.0271214	0	0.000110157
498.407	0.00872602	-0.0266621	0	5.28859e-05
508.407	0.00880238	-0.026718	0	-2.34761e-05
518.407	0.0085542	-0.0203511	0	-2.34761e-05
528.407	0.0087642	-0.0263942	0	3.37954e-05
538.407	0.00853511	-0.0253043	0	5.28859e-05
548.407	0.00870693	-0.0259615	0	5.28859e-05
558.407	0.00878329	-0.0254474	0	3.37954e-05
568.407	0.0087642	-0.0255499	0	3.37954e-05
578.407	0.00868784	-0.0250759	0	7.19764e-05
588.407	0.0087642	-0.024878	0	0.000110157
598.407	0.00870693	-0.0246954	0	-6.16571e-05
608.407	0.00874511	-0.0249079	0	1.47049e-05
618.407	0.00866874	-0.0248793	0	-4.25666e-05
628.407	0.00870693	-0.0245955	0	5.28859e-05
638.407	0.00864965	-0.0244982	0	3.37954e-05
648.407	0.00880238	-0.0243321	0	-2.34761e-05
658.407	0.00864965	-0.0241679	0	7.19764e-05
668.407	0.00872602	-0.0240846	0	0.000110157
678.407	0.00870693	-0.0238937	0	0.000110157
688.407	0.00866874	-0.023713	0	5.28859e-05
698.407	0.00872602	-0.0235686	0	0.000129248
708.407	0.00870693	-0.023442	0	-4.38561e-06
718.407	0.00866874	-0.0233669	0	3.37954e-05
728.407	0.00870693	-0.0231378	0	1.47049e-05
738.407	0.00861147	-0.0231181	0	3.37954e-05
748.407	0.00861147	-0.0230246	0	-4.38561e-06
758.407	0.00878329	-0.0228757	0	3.37954e-05
768.407	0.00861147	-0.0228394	0	5.28859e-05
778.407	0.00868784	-0.0227345	0	3.37954e-05
788.407	0.00872602	-0.0225951	0	0.000110157
798.407	0.00878329	-0.0224539	0	9.10669e-05
808.407	0.00872602	-0.0223215	0	-4.38561e-06
818.407	0.00863056	-0.0221924	0	-4.38561e-06
828.407	0.00887875	-0.0220435	0	7.19764e-05
838.407	0.00866874	-0.0219474	0	-4.38561e-06
848.407	0.00870693	-0.0218832	0	5.28859e-05
858.407	0.00866874	-0.0218227	0	3.37954e-05
868.407	0.00864965	-0.0216948	0	-4.38561e-06
878.407	0.00874511	-0.0215682	0	5.28859e-05
888.407	0.00863056	-0.0214327	0	-4.38561e-06
898.407	0.00874511	-0.0213544	0	5.28859e-05
908.407	0.00861147	-0.021203	0	-4.25666e-05
918.407	0.00878329	-0.0211546	0	7.19764e-05
928.407	0.00866874	-0.0209879	0	-4.38561e-06
938.407	0.00866874	-0.0210357	0	-6.16571e-05
948.407	0.00878329	-0.0209269	0	7.19764e-05
958.407	0.0087642	-0.0207869	0	3.37954e-05
968.407	0.00868784	-0.0206876	0	-4.38561e-06
978.407	0.00868784	-0.0207004	0	-2.34761e-05
988.407	0.00872602	-0.0205133	0	7.19764e-05
998.407	0.00872602	-0.020416	0	-4.25666e-05
1008.41	0.00863056	-0.0204128	0	-8.07476e-05
1018.41	0.00868784	-0.0203148	0	7.19764e-05
1028.41	0.00864965	-0.0202314	0	7.19764e-05
1038.41	0.00864965	-0.0200724	0	-0.000118929
1048.41	0.00866874	-0.0199629	0	3.37954e-05
1058.41	0.00866874	-0.0199445	0	-4.25666e-05
1068.41	0.00874511	-0.0198395	0	-4.25666e-05
1078.41	0.00872602	-0.0197504	0	7.19764e-05
1088.41	0.00870693	-0.0196105	0	9.10669e-05
1098.41	0.00870693	-0.0194457	0	1.47049e-05
1108.41	0.00882147	-0.019251	0	-0.000118929
1118.41	0.00884056	-0.0192942	0	0.000148338
1128.41	0.00868784	-0.0191333	0	7.19764e-05
1138.41	0.00870693	-0.0190156	0	7.19764e-05
1148.41	0.00874511	-0.0189583	0	-2.34761e-05
1158.41	0.00866874	-0.0188979	0	0.000129248
1168.41	0.00874511	-0.0188037	0	-0.000118929
1178.41	0.00870693	-0.0187401	0	-8.07476e-05
1188.41	0.0087642	-0.018637	0	5.28859e-05
1198.41	0.00864965	-0.0185606	0	-4.38561e-06
1208.41	0.00866874	-0.0185218	0	3.37954e-05
1218.41	0.00866874	-0.0184894	0	-4.38561e-06
1228.41	0.00874511	-0.0185091	0	0.000148338
1238.41	0.00870693	-0.0186217	0	7.19764e-05
1248.41	0.00872602	-0.018532	0	9.10669e-05
1258.41	0.00863056	-0.0184525	0	-4.38561e-06
1268.41	0.00878329	-0.0184289	0	-4.38561e-06
1278.41	0.00866874	-0.0183195	0	1.47049e-05
1288.41	0.00872602	-0.0182794	0	-4.25666e-05
1298.41	0.00857329	-0.0182584	0	0.000110157
1308.41	0.00874511	-0.0181693	0	-2.34761e-05
1318.41	0.0087642	-0.0181	0	-8.07476e-05
1328.41	0.00866874	-0.0180185	0	0.000148338
1338.41	0.00864965	-0.0179759	0	0.000110157
1348.41	0.00866874	-0.0179231	0	0.000148338
1358.41	0.00870693	-0.0178391	0	1.47049e-05
1368.41	0.00868784	-0.017771	0	7.19764e-05
1378.41	0.00868784	-0.0176336	0	-8.07476e-05
1388.41	0.00864965	-0.0175566	0	5.28859e-05
1398.41	0.00880238	-0.0173988	0	3.37954e-05
1408.41	0.00857329	-0.0174618	0	-4.38561e-06
1418.41	0.00859238	-0.0173498	0	-2.34761e-05
1428.41	0.00857329	-0.0172894	0	-6.16571e-05
1438.41	0.00863056	-0.0172506	0	-2.34761e-05
1448.41	0.00861147	-0.0171717	0	3.37954e-05
1458.41	0.00870693	-0.0171284	0	5.28859e-05
1468.41	0.00868784	-0.017019	0	-8.07476e-05
1478.41	0.00866874	-0.016991	0	0.000129248
1488.41	0.00861147	-0.0166442	0	9.10669e-05
1498.41	0.0087642	-0.0169477	0	7.19764e-05
1508.41	0.0087642	-0.0168962	0	-4.38561e-06
1518.41	0.00870693	-0.0168498	0	9.10669e-05
1528.41	0.00868784	-0.0168294	0	9.10669e-05
1538.41	0.00870693	-0.0168905	0	0.000110157
1548.41	0.00857329	-0.0168097	0	9.10669e-05
1558.41	0.00868784	-0.0166875	0	1.47049e-05
1568.41	0.00866874	-0.016699	0	1.47049e-05
1578.41	0.0087642	-0.0166302	0	-4.25666e-05
1588.41	0.00861147	-0.0165214	0	-4.38561e-06
1598.41	0.00864965	-0.0166003	0	0.000129248
1608.41	0.00864965	-0.0165113	0	5.28859e-05
1618.41	0.00864965	-0.0164165	0	7.19764e-05
1628.41	0.00870693	-0.0164114	0	5.28859e-05
1638.41	0.00874511	-0.0163134	0	1.47049e-05
1648.41	0.00861147	-0.0161989	0	-4.25666e-05
1658.41	0.0087642	-0.0162237	0	0.000110157
1668.41	0.00870693	-0.0161359	0	-9.98381e-05
1678.41	0.00870693	-0.0161257	0	5.28859e-05
1688.41	0.00863056	-0.0160614	0	3.37954e-05
1698.41	0.00872602	-0.0159717	0	-4.25666e-05
1708.41	0.00866874	-0.0159246	0	5.28859e-05
1718.41	0.00868784	-0.0159062	0	-4.25666e-05
1728.41	0.00866874	-0.015903	0	-2.34761e-05
1738.41	0.00868784	-0.0158534	0	1.47049e-05
1748.41	0.00859238	-0.0155034	0	1.47049e-05
1758.41	0.00870693	-0.0156428	0	-4.38561e-06
1768.41	0.00870693	-0.015597	0	-2.34761e-05
1778.41	0.00861147	-0.0155836	0	0.00020561
1788.41	0.00868784	-0.0155314	0	1.47049e-05
1798.41	0.00872602	-0.0154093	0	-6.16571e-05
1808.41	0.00874511	-0.0153425	0	-8.07476e-05
1818.41	0.00864965	-0.0153794	0	-0.000118929
1828.41	0.00878329	-0.0152585	0	1.47049e-05
1838.41	0.00864965	-0.0152025	0	5.28859e-05
1848.41	0.00870693	-0.0152044	0	9.10669e-05
1858.41	0.00870693	-0.0150905	0	7.19764e-05
1860.05	0.00872602	-0.0150345	0	3.37954e-05