File: EXPERIMENTAL/DATA/Electrochemical-cycling/S-series/2024-07-02_S20_Icell_t1800_C0010_J01_deltaX-110,2mm_plating-stripping_05_MB_C02.txt
time/s	Ewe/V	I/mA	error
1896.36	-0.0653749	0.194641	0	0
1896.36	-0.0509126	0.196032	0	0
1896.38	-0.0423801	0.196027	0	0
1896.43	-0.0338859	0.196025	0	0
1896.52	-0.0254106	0.19603	0	0
1896.62	-0.0169927	0.19603	0	0
1896.75	-0.00859384	0.196031	0	0
1896.91	-0.00029043	0.196031	0	0
1897.11	0.00791754	0.196035	0	0
1897.38	0.0162782	0.19602	0	0
1897.73	0.0246198	0.196027	0	0
1898.19	0.0328851	0.196035	0	0
1898.81	0.0411312	0.196025	0	0
1899.68	0.049301	0.19603	0	0
1901.67	0.0574326	0.19602	0	0
1912.99	0.0656979	0.196037	0	0
1920.21	0.0739249	0.196027	0	0
1922.7	0.0820565	0.196027	0	0
1923.64	0.0902263	0.196024	0	0
1924.16	0.0984725	0.196025	0	0
1924.51	0.106814	0.196032	0	0
1924.79	0.114984	0.196023	0	0
1925.04	0.123173	0.196028	0	0
1925.27	0.131476	0.196019	0	0
1925.51	0.139932	0.196024	0	0
1925.74	0.148274	0.196022	0	0
1925.97	0.156463	0.196022	0	0
1926.21	0.16469	0.196031	0	0
1926.46	0.173051	0.196027	0	0
1926.75	0.181297	0.19603	0	0
1927.11	0.189696	0.196024	0	0
1927.66	0.198094	0.19603	0	0
1928.73	0.206398	0.196021	0	0
1929.48	0.214568	0.19602	0	0
1929.86	0.222871	0.196025	0	0
1930.1	0.231117	0.196025	0	0
1930.28	0.239497	0.196023	0	0
1930.43	0.247781	0.196027	0	0
1930.56	0.256161	0.196021	0	0
1930.67	0.264464	0.196022	0	0
1930.77	0.272882	0.196025	0	0
1930.85	0.281358	0.196028	0	0
1930.93	0.289737	0.196023	0	0
1931	0.29806	0.196028	0	0
1931.05	0.306363	0.196034	0	0
1931.11	0.314972	0.196027	0	0
1931.16	0.323447	0.196025	0	0
1931.2	0.331865	0.196027	0	0
1931.25	0.340245	0.196019	0	0
1931.28	0.348472	0.196031	0	0
1931.32	0.357005	0.19603	0	0
1931.35	0.36548	0.196027	0	0
1931.39	0.374089	0.196029	0	0
1931.42	0.382526	0.196028	0	0
1931.44	0.390963	0.196035	0	0
1931.47	0.399571	0.196028	0	0
1931.5	0.408333	0.196027	0	0
1931.52	0.416923	0.196037	0	0
1931.55	0.425722	0.196031	0	0
1931.57	0.43456	0.196024	0	0
1931.6	0.443398	0.196025	0	0
1931.62	0.451816	0.196027	0	0
1931.64	0.460387	0.196024	0	0
1931.66	0.468919	0.196023	0	0
1931.69	0.47749	0.196024	0	0
1931.71	0.486061	0.196034	0	0
1931.73	0.494498	0.196024	0	0
1931.75	0.50324	0.196027	0	0
1931.77	0.511753	0.196033	0	0
1931.79	0.52021	0.196025	0	0
1931.81	0.528914	0.196028	0	0
1931.83	0.537733	0.196023	0	0
1931.85	0.546017	0.196023	0	0
1931.87	0.554645	0.196025	0	0
1931.89	0.563082	0.196027	0	0
1931.91	0.571653	0.196021	0	0
1931.93	0.580242	0.196023	0	0
1931.95	0.588641	0.196026	0	0
1931.97	0.597269	0.196025	0	0
1931.99	0.605954	0.19603	0	0
1932	0.614525	0.196028	0	0
1932.02	0.62342	0.196026	0	0
1932.04	0.632105	0.19602	0	0
1932.06	0.64081	0.196018	0	0
1932.08	0.649361	0.196034	0	0
1932.1	0.658065	0.196027	0	0
1932.12	0.667132	0.196032	0	0
1932.14	0.675817	0.196022	0	0
1932.16	0.684312	0.196026	0	0
1932.18	0.692902	0.196028	0	0
1932.2	0.70151	0.196021	0	0
1932.22	0.709966	0.196028	0	0
1932.23	0.718652	0.196026	0	0
1932.25	0.727318	0.196036	0	0
1932.27	0.736003	0.196018	0	0
1932.29	0.744917	0.196023	0	0
1932.31	0.753793	0.196023	0	0
1932.33	0.762364	0.196028	0	0
1932.35	0.770896	0.196029	0	0
1932.37	0.779849	0.196027	0	0
1932.39	0.788496	0.196021	0	0
1932.41	0.796856	0.196023	0	0
1932.43	0.805561	0.196026	0	0
1932.44	0.814112	0.196027	0	0
1932.46	0.822759	0.196025	0	0
1932.48	0.83133	0.196028	0	0
1932.5	0.83992	0.196027	0	0
1932.52	0.849311	0.196028	0	0
1932.54	0.858225	0.196021	0	0
1932.56	0.866739	0.196027	0	0
1932.58	0.875386	0.196021	0	0
1932.6	0.884166	0.196029	0	0
1932.62	0.892909	0.19603	0	0
1932.64	0.901518	0.196018	0	0
1932.66	0.910127	0.196028	0	0
1932.67	0.918831	0.196032	0	0
1932.69	0.927058	0.196023	0	0
1932.71	0.935648	0.196028	0	0
1932.73	0.944218	0.196029	0	0
1932.75	0.953037	0.196028	0	0
1932.77	0.961989	0.196022	0	0
1932.79	0.970293	0.196039	0	0
1932.81	0.979054	0.196022	0	0
1932.82	0.987625	0.196026	0	0
1932.84	0.996291	0.196022	0	0
1969.06	-0.0536995	0.196027	0	0
1969.06	-0.0440027	0.196028	0	0
1969.08	-0.0351457	0.196028	0	0
1969.13	-0.0266132	0.19603	0	0
1969.2	-0.0184434	0.196031	0	0
1969.3	-0.00998729	0.19603	0	0
1969.43	-0.0016457	0.196023	0	0
1969.6	0.00654318	0.196028	0	0
1969.83	0.0148084	0.196034	0	0
1970.14	0.0231118	0.19603	0	0
1970.58	0.0313198	0.196027	0	0
1971.2	0.0394323	0.19603	0	0
1972.24	0.0477358	0.196025	0	0
1974.57	0.0558674	0.19603	0	0
1984.58	0.0640754	0.196037	0	0
1991.65	0.0722261	0.196026	0	0
1994.75	0.0804913	0.19602	0	0
1996.03	0.0886802	0.196027	0	0
1996.73	0.097079	0.196023	0	0
1997.18	0.105306	0.196022	0	0
1997.51	0.113724	0.196033	0	0
1997.77	0.121932	0.196028	0	0
1997.99	0.130255	0.196031	0	0
1998.19	0.138443	0.196027	0	0
1998.37	0.14669	0.196017	0	0
1998.54	0.155108	0.196027	0	0
1998.71	0.163373	0.196032	0	0
1998.88	0.171638	0.196028	0	0
1999.05	0.179999	0.196025	0	0
1999.23	0.188378	0.196029	0	0
1999.42	0.196663	0.196027	0	0
1999.58	0.204966	0.196021	0	0
1999.72	0.213174	0.19603	0	0
1999.84	0.221668	0.196027	0	0
1999.95	0.229934	0.19603	0	0
2000.04	0.238237	0.196026	0	0
2000.13	0.246598	0.196022	0	0
2000.2	0.25492	0.196025	0	0
2000.26	0.263262	0.196025	0	0
2000.32	0.271794	0.196028	0	0
2000.37	0.280193	0.196027	0	0
2000.42	0.288649	0.196027	0	0
2000.47	0.297258	0.196027	0	0
2000.51	0.305791	0.196027	0	0
2000.54	0.314361	0.19602	0	0
2000.58	0.322722	0.19603	0	0
2000.61	0.331293	0.196022	0	0
2000.64	0.33973	0.196025	0	0
2000.67	0.348071	0.196023	0	0
2000.7	0.356336	0.196022	0	0
2000.72	0.364697	0.196026	0	0
2000.75	0.373592	0.196023	0	0
2000.77	0.382373	0.19602	0	0
2000.79	0.391039	0.19603	0	0
2000.82	0.399858	0.196023	0	0
2000.84	0.408887	0.196026	0	0
2000.86	0.417515	0.196022	0	0
2000.88	0.426085	0.196027	0	0
2000.9	0.434751	0.196021	0	0
2000.92	0.443379	0.196023	0	0
2000.94	0.452083	0.196025	0	0
2000.95	0.46073	0.196023	0	0
2000.97	0.469511	0.196018	0	0
2000.99	0.478024	0.196025	0	0
2001.01	0.486671	0.19602	0	0
2001.03	0.49528	0.196032	0	0
2001.04	0.503813	0.19603	0	0
2001.06	0.512288	0.196027	0	0
2001.08	0.52082	0.196021	0	0
2001.1	0.529525	0.196031	0	0
2001.12	0.538573	0.196023	0	0
2001.13	0.547181	0.196029	0	0
2001.15	0.556	0.19603	0	0
2001.17	0.565086	0.19602	0	0
2001.19	0.573714	0.196034	0	0
2001.2	0.582418	0.196026	0	0
2001.22	0.59097	0.196028	0	0
2001.24	0.599445	0.196024	0	0
2001.25	0.607901	0.196021	0	0
2001.27	0.616224	0.196031	0	0
2001.29	0.625119	0.19603	0	0
2001.3	0.633919	0.196023	0	0
2001.32	0.642508	0.196028	0	0
2001.34	0.651423	0.196029	0	0
2001.35	0.659822	0.196027	0	0
2001.37	0.668564	0.196024	0	0
2001.39	0.677192	0.196025	0	0
2001.4	0.685782	0.196023	0	0
2001.42	0.6946	0.196025	0	0
2001.44	0.703457	0.196026	0	0
2001.45	0.711971	0.196025	0	0
2001.47	0.720675	0.196029	0	0
2001.49	0.729513	0.196025	0	0
2001.5	0.738236	0.19603	0	0
2001.52	0.746788	0.196024	0	0
2001.54	0.755416	0.196028	0	0
2001.55	0.764025	0.196022	0	0
2001.57	0.772481	0.196024	0	0
2001.59	0.781261	0.196028	0	0
2001.6	0.789985	0.196035	0	0
2001.62	0.798574	0.196021	0	0
2001.64	0.807317	0.196024	0	0
2001.65	0.815888	0.196022	0	0
2001.67	0.824668	0.19602	0	0
2001.69	0.833487	0.196027	0	0
2001.71	0.842344	0.196022	0	0
2001.72	0.850991	0.196021	0	0
2001.74	0.859562	0.196027	0	0
2001.76	0.868113	0.196024	0	0
2001.77	0.876741	0.196035	0	0
2001.79	0.885178	0.196027	0	0
2001.81	0.893978	0.196025	0	0
2001.83	0.902529	0.196029	0	0
2001.84	0.911215	0.196021	0	0
2001.86	0.919613	0.196027	0	0
2001.88	0.928489	0.196028	0	0
2001.9	0.937041	0.19602	0	0
2001.91	0.945726	0.196027	0	0
2001.93	0.954717	0.196023	0	0
2001.95	0.963287	0.196023	0	0
2001.97	0.971934	0.196021	0	0
2001.98	0.980677	0.196037	0	0
2002	0.988923	0.196016	0	0
2002.02	0.997303	0.196024	0	0
2038.23	-0.0512753	0.196032	0	0
2038.23	-0.0411967	0.196028	0	0
2038.25	-0.0324924	0.196028	0	0
2038.3	-0.0241317	0.196032	0	0
2038.38	-0.0159428	0.196028	0	0
2038.49	-0.00746763	0.196032	0	0
2038.62	0.000816692	0.196032	0	0
2038.81	0.00908193	0.196029	0	0
2039.06	0.0172708	0.196028	0	0
2039.42	0.0256697	0.196022	0	0
2039.94	0.0338395	0.196027	0	0
2040.7	0.0420665	0.196021	0	0
2041.95	0.0502936	0.196034	0	0
2044.59	0.0586161	0.196025	0	0
2054.2	0.0668813	0.196027	0	0
2060.33	0.0749939	0.196025	0	0
2063.01	0.0833164	0.196034	0	0
2064.24	0.0916389	0.196023	0	0
2064.86	0.0997705	0.196023	0	0
2065.23	0.108017	0.196026	0	0
2065.51	0.116435	0.196024	0	0
2065.71	0.1247	0.196033	0	0
2065.88	0.133022	0.196018	0	0
2066.03	0.141383	0.196031	0	0
2066.17	0.149725	0.196034	0	0
2066.31	0.157952	0.196019	0	0
2066.44	0.166331	0.19603	0	0
2066.58	0.174959	0.196028	0	0
2066.72	0.183282	0.196025	0	0
2066.86	0.191547	0.196028	0	0
2067.02	0.199793	0.196027	0	0
2067.17	0.208078	0.19602	0	0
2067.31	0.216362	0.196018	0	0
2067.44	0.224799	0.196031	0	0
2067.56	0.23316	0.196025	0	0
2067.66	0.241463	0.196034	0	0
2067.75	0.249747	0.196019	0	0
2067.83	0.258051	0.196032	0	0
2067.89	0.266316	0.196025	0	0
2067.96	0.274753	0.19603	0	0
2068.01	0.283133	0.196021	0	0
2068.06	0.291665	0.196017	0	0
2068.1	0.300198	0.196031	0	0
2068.14	0.308578	0.19603	0	0
2068.18	0.317034	0.196021	0	0
2068.21	0.325337	0.196027	0	0
2068.24	0.333736	0.196029	0	0
2068.27	0.34223	0.196016	0	0
2068.3	0.350915	0.196025	0	0
2068.33	0.359429	0.196022	0	0
2068.35	0.367942	0.196028	0	0
2068.38	0.376398	0.196025	0	0
2068.4	0.384854	0.196034	0	0
2068.42	0.393654	0.196026	0	0
2068.44	0.402206	0.196018	0	0
2068.46	0.410929	0.196016	0	0
2068.48	0.419423	0.196027	0	0
2068.5	0.428147	0.196026	0	0
2068.52	0.436756	0.196025	0	0
2068.54	0.445269	0.196027	0	0
2068.56	0.454469	0.196027	0	0
2068.58	0.463231	0.196028	0	0
2068.6	0.472012	0.196025	0	0
2068.62	0.480907	0.196028	0	0
2068.64	0.489573	0.196025	0	0
2068.66	0.498602	0.196029	0	0
2068.67	0.507268	0.196021	0	0
2068.69	0.516048	0.196027	0	0
2068.71	0.524714	0.196021	0	0
2068.73	0.533171	0.19602	0	0
2068.74	0.541531	0.196017	0	0
2068.76	0.550369	0.196021	0	0
2068.78	0.558825	0.196024	0	0
2068.79	0.567377	0.196034	0	0
2068.81	0.5761	0.196032	0	0
2068.83	0.584747	0.196025	0	0
2068.84	0.593585	0.196023	0	0
2068.86	0.602423	0.19602	0	0
2068.88	0.611146	0.196024	0	0
2068.9	0.619889	0.196032	0	0
2068.91	0.628746	0.196028	0	0
2068.93	0.637183	0.196029	0	0
2068.94	0.645849	0.196021	0	0
2068.96	0.654515	0.196021	0	0
2068.98	0.66299	0.19602	0	0
2068.99	0.671714	0.196027	0	0
2069.01	0.680303	0.196026	0	0
2069.03	0.688893	0.196016	0	0
2069.04	0.697273	0.196023	0	0
2069.06	0.705691	0.19602	0	0
2069.07	0.714509	0.196026	0	0
2069.09	0.723099	0.196028	0	0
2069.11	0.731689	0.196026	0	0
2069.12	0.740241	0.196021	0	0
2069.14	0.749002	0.196027	0	0
2069.15	0.757439	0.196025	0	0
2069.17	0.766296	0.196018	0	0
2069.19	0.775	0.196025	0	0
2069.2	0.783934	0.196023	0	0
2069.22	0.792562	0.196027	0	0
2069.24	0.801228	0.196021	0	0
2069.25	0.810104	0.196029	0	0
2069.27	0.818904	0.196028	0	0
2069.29	0.827951	0.196032	0	0
2069.31	0.836579	0.196023	0	0
2069.32	0.845016	0.196026	0	0
2069.34	0.853701	0.19603	0	0
2069.35	0.86231	0.196032	0	0
2069.37	0.870824	0.196022	0	0
2069.39	0.879318	0.19602	0	0
2069.4	0.887736	0.196025	0	0
2069.42	0.896307	0.196023	0	0
2069.44	0.904896	0.196023	0	0
2069.45	0.913581	0.196021	0	0
2069.47	0.922343	0.196014	0	0
2069.49	0.930933	0.196026	0	0
2069.5	0.939904	0.196022	0	0
2069.52	0.948704	0.196025	0	0
2069.54	0.957275	0.19602	0	0
2069.56	0.965635	0.196031	0	0
2069.57	0.974072	0.196023	0	0
2069.59	0.982567	0.196028	0	0
2069.61	0.991481	0.196021	0	0
2069.62	1.00017	0.196032	0	0
2105.83	-0.0498628	0.196028	0	0
2105.84	-0.0400896	0.196021	0	0
2105.86	-0.0314998	0.196025	0	0
2105.91	-0.0230055	0.196034	0	0
2105.99	-0.0146448	0.196034	0	0
2106.1	-0.00628416	0.196024	0	0
2106.25	0.00219105	0.196033	0	0
2106.45	0.0103608	0.196032	0	0
2106.73	0.0185688	0.196025	0	0
2107.12	0.0267768	0.19603	0	0
2107.68	0.035042	0.196024	0	0
2108.53	0.0433836	0.196025	0	0
2109.87	0.0515725	0.196028	0	0
2112.35	0.0597232	0.19602	0	0
2119.34	0.0679121	0.196025	0	0
2126	0.076101	0.196023	0	0
2128.56	0.0842326	0.196027	0	0
2129.81	0.0924406	0.196031	0	0
2130.47	0.100859	0.196024	0	0
2130.86	0.1092	0.196025	0	0
2131.11	0.117408	0.19603	0	0
2131.3	0.125692	0.196024	0	0
2131.47	0.133977	0.196025	0	0
2131.61	0.142337	0.19603	0	0
2131.75	0.150603	0.196022	0	0
2131.88	0.158906	0.196023	0	0
2132.01	0.167477	0.196025	0	0
2132.14	0.175647	0.196023	0	0
2132.27	0.183797	0.196024	0	0
2132.4	0.192101	0.196026	0	0
2132.54	0.200366	0.196025	0	0
2132.68	0.208593	0.19602	0	0
2132.81	0.216782	0.196024	0	0
2132.95	0.2252	0.196027	0	0
2133.08	0.233541	0.19602	0	0
2133.2	0.241883	0.196028	0	0
2133.3	0.250282	0.196021	0	0
2133.4	0.258738	0.19603	0	0
2133.48	0.267099	0.196028	0	0
2133.56	0.275497	0.196021	0	0
2133.62	0.283782	0.196026	0	0
2133.68	0.292295	0.196029	0	0
2133.73	0.300694	0.196027	0	0
2133.78	0.308959	0.19603	0	0
2133.82	0.317511	0.196018	0	0
2133.86	0.325891	0.196021	0	0
2133.9	0.334423	0.196023	0	0
2133.94	0.343108	0.196025	0	0
2133.97	0.351641	0.196027	0	0
2134	0.360154	0.196027	0	0
2134.02	0.368687	0.196028	0	0
2134.05	0.37741	0.196027	0	0
2134.08	0.385962	0.196021	0	0
2134.1	0.394437	0.19603	0	0
2134.13	0.402969	0.196026	0	0
2134.15	0.411444	0.196025	0	0
2134.17	0.419939	0.196025	0	0
2134.19	0.428357	0.196025	0	0
2134.21	0.436908	0.196018	0	0
2134.23	0.445498	0.196027	0	0
2134.25	0.453992	0.196025	0	0
2134.27	0.462563	0.196026	0	0
2134.29	0.471248	0.196023	0	0
2134.31	0.4798	0.196028	0	0
2134.33	0.488389	0.19603	0	0
2134.34	0.497208	0.196027	0	0
2134.36	0.506275	0.19603	0	0
2134.38	0.51517	0.196028	0	0
2134.4	0.523894	0.196027	0	0
2134.42	0.532617	0.196033	0	0
2134.44	0.541245	0.196027	0	0
2134.45	0.549873	0.196023	0	0
2134.47	0.558883	0.196029	0	0
2134.49	0.567434	0.196027	0	0
2134.5	0.576138	0.196025	0	0
2134.52	0.584594	0.196027	0	0
2134.54	0.593012	0.196025	0	0
2134.55	0.601869	0.196025	0	0
2134.57	0.610726	0.196028	0	0
2134.59	0.619602	0.196023	0	0
2134.61	0.627963	0.196018	0	0
2134.62	0.636744	0.196022	0	0
2134.64	0.645009	0.196024	0	0
2134.65	0.653732	0.196021	0	0
2134.67	0.662227	0.196028	0	0
2134.69	0.670587	0.196026	0	0
2134.7	0.679406	0.196029	0	0
2134.72	0.688072	0.196027	0	0
2134.73	0.696509	0.196021	0	0
2134.75	0.705156	0.19603	0	0
2134.77	0.714109	0.196023	0	0
2134.78	0.723061	0.196023	0	0
2134.8	0.731594	0.196027	0	0
2134.82	0.74047	0.196014	0	0
2134.83	0.749002	0.196028	0	0
2134.85	0.757687	0.196027	0	0
2134.86	0.766334	0.196029	0	0
2134.88	0.775115	0.196023	0	0
2134.9	0.783876	0.196026	0	0
2134.91	0.792695	0.196024	0	0
2134.93	0.8014	0.196033	0	0
2134.95	0.810237	0.19602	0	0
2134.96	0.818884	0.196026	0	0
2134.98	0.827741	0.196031	0	0
2134.99	0.836236	0.196019	0	0
2135.01	0.844787	0.196027	0	0
2135.03	0.853243	0.196027	0	0
2135.04	0.86189	0.196027	0	0
2135.06	0.870556	0.196027	0	0
2135.08	0.879452	0.196021	0	0
2135.09	0.888175	0.19602	0	0
2135.11	0.896936	0.19603	0	0
2135.13	0.905641	0.196021	0	0
2135.14	0.91425	0.196016	0	0
2135.16	0.923183	0.196032	0	0
2135.18	0.931754	0.196032	0	0
2135.19	0.940229	0.196032	0	0
2135.21	0.948895	0.196034	0	0
2135.23	0.957446	0.196027	0	0
2135.24	0.965998	0.196027	0	0
2135.26	0.974817	0.196027	0	0
2135.28	0.98354	0.196035	0	0
2135.29	0.992168	0.19602	0	0
2135.31	1.00045	0.196025	0	0
2171.52	-0.0501682	0.196023	0	0
2171.52	-0.0407767	0.19603	0	0
2171.54	-0.0322824	0.196035	0	0
2171.59	-0.0240554	0.196027	0	0
2171.67	-0.0158474	0.196024	0	0
2171.78	-0.00763943	0.19603	0	0
2171.92	0.000663985	0.196037	0	0
2172.12	0.00900558	0.196023	0	0
2172.4	0.0174235	0.196026	0	0
2172.8	0.0258224	0.196032	0	0
2173.36	0.0341831	0.196038	0	0
2174.18	0.0424865	0.196023	0	0
2175.41	0.0506563	0.19602	0	0
2177.49	0.0588452	0.196028	0	0
2181.53	0.0670531	0.196026	0	0
2188.48	0.0752229	0.196026	0	0
2191.81	0.0833927	0.196034	0	0
2193.38	0.0917343	0.196033	0	0
2194.2	0.100019	0.196034	0	0
2194.67	0.108417	0.196027	0	0
2194.99	0.116664	0.196021	0	0
2195.22	0.124967	0.196029	0	0
2195.41	0.133137	0.196029	0	0
2195.58	0.141555	0.196028	0	0
2195.73	0.149896	0.196034	0	0
2195.88	0.1582	0.196026	0	0
2196.03	0.16658	0.196025	0	0
2196.18	0.174902	0.196026	0	0
2196.33	0.183225	0.196021	0	0
2196.48	0.191566	0.196026	0	0
2196.63	0.199889	0.196028	0	0
2196.79	0.208116	0.196024	0	0
2196.95	0.2164	0.196025	0	0
2197.1	0.224551	0.196027	0	0
2197.24	0.232797	0.196032	0	0
2197.37	0.241215	0.196023	0	0
2197.49	0.249709	0.196032	0	0
2197.6	0.258299	0.196026	0	0
2197.69	0.266641	0.196026	0	0
2197.78	0.275058	0.196021	0	0
2197.85	0.283324	0.196028	0	0
2197.91	0.291589	0.196034	0	0
2197.97	0.299892	0.196025	0	0
2198.03	0.308463	0.196028	0	0
2198.08	0.317053	0.196027	0	0
2198.12	0.325528	0.196025	0	0
2198.16	0.333946	0.196029	0	0
2198.2	0.342345	0.196026	0	0
2198.24	0.350858	0.196024	0	0
2198.27	0.359142	0.196024	0	0
2198.3	0.367713	0.196025	0	0
2198.34	0.376494	0.196027	0	0
2198.36	0.384778	0.196023	0	0
2198.39	0.393215	0.196037	0	0
2198.42	0.401652	0.196023	0	0
2198.44	0.409956	0.196022	0	0
2198.46	0.41845	0.196026	0	0
2198.49	0.427326	0.196023	0	0
2198.51	0.435648	0.196034	0	0
2198.53	0.444353	0.196024	0	0
2198.55	0.453	0.196028	0	0
2198.57	0.461437	0.196025	0	0
2198.59	0.470026	0.196032	0	0
2198.61	0.478406	0.19603	0	0
2198.63	0.487091	0.19603	0	0
2198.65	0.495681	0.196028	0	0
2198.67	0.504481	0.196021	0	0
2198.69	0.512861	0.196028	0	0
2198.71	0.521298	0.196027	0	0
2198.72	0.529945	0.196032	0	0
2198.74	0.538477	0.196025	0	0
2198.76	0.547029	0.196038	0	0
2198.78	0.555638	0.196029	0	0
2198.79	0.564265	0.19602	0	0
2198.81	0.573122	0.196023	0	0
2198.83	0.581941	0.196021	0	0
2198.85	0.590588	0.196031	0	0
2198.87	0.599636	0.196025	0	0
2198.88	0.608245	0.196026	0	0
2198.9	0.616682	0.196037	0	0
2198.92	0.625463	0.196026	0	0
2198.93	0.634281	0.196027	0	0
2198.95	0.643406	0.196026	0	0
2198.97	0.652243	0.19603	0	0
2198.98	0.660795	0.196029	0	0
2199	0.669767	0.196025	0	0
2199.02	0.67891	0.196025	0	0
2199.03	0.687519	0.196028	0	0
2199.05	0.69607	0.196028	0	0
2199.06	0.704488	0.196021	0	0
2199.08	0.713212	0.196022	0	0
2199.1	0.721858	0.196029	0	0
2199.11	0.730582	0.196028	0	0
2199.13	0.739	0.196025	0	0
2199.14	0.747723	0.196025	0	0
2199.16	0.756485	0.196038	0	0
2199.18	0.765132	0.196028	0	0
2199.19	0.773836	0.196023	0	0
2199.21	0.78233	0.196027	0	0
2199.22	0.791073	0.196032	0	0
2199.24	0.799701	0.196023	0	0
2199.26	0.808882	0.19602	0	0
2199.27	0.817434	0.196023	0	0
2199.29	0.825928	0.196026	0	0
2199.31	0.834689	0.196026	0	0
2199.32	0.843375	0.196024	0	0
2199.34	0.852098	0.196037	0	0
2199.35	0.860841	0.196029	0	0
2199.37	0.869697	0.196021	0	0
2199.39	0.87823	0.196035	0	0
2199.4	0.886839	0.196025	0	0
2199.42	0.895409	0.196021	0	0
2199.44	0.904324	0.19602	0	0
2199.45	0.91278	0.196021	0	0
2199.47	0.92135	0.196028	0	0
2199.49	0.930246	0.196026	0	0
2199.5	0.938759	0.196025	0	0
2199.52	0.94754	0.196026	0	0
2199.53	0.956263	0.196032	0	0
2199.55	0.964757	0.19602	0	0
2199.57	0.973328	0.196018	0	0
2199.58	0.982548	0.196023	0	0
2199.6	0.991481	0.196032	0	0
2199.62	1.00005	0.196021	0	0
2235.83	-0.0522297	0.196028	0	0
2235.83	-0.0426856	0.196026	0	0
2235.85	-0.0340004	0.196023	0	0
2235.89	-0.0257161	0.19603	0	0
2235.97	-0.0174699	0.196025	0	0
2236.07	-0.00922376	0.196028	0	0
2236.21	-0.00086308	0.196036	0	0
2236.41	0.00751669	0.196024	0	0
2236.67	0.0157628	0.196028	0	0
2237.05	0.0240281	0.196021	0	0
2237.58	0.0323315	0.196036	0	0
2238.33	0.0406731	0.196023	0	0
2239.43	0.0488238	0.196021	0	0
2241.12	0.0570509	0.196022	0	0
2243.95	0.0652588	0.196023	0	0
2248.86	0.0733904	0.196021	0	0
2253.28	0.0815412	0.196024	0	0
2255.32	0.08973	0.19602	0	0
2256.44	0.0980144	0.196031	0	0
2257.1	0.106222	0.196021	0	0
2257.53	0.11443	0.196028	0	0
2257.83	0.1226	0.196028	0	0
2258.06	0.130865	0.196033	0	0
2258.27	0.139054	0.196027	0	0
2258.47	0.147319	0.196028	0	0
2258.64	0.155566	0.196029	0	0
2258.83	0.163907	0.196027	0	0
2259.01	0.172172	0.196032	0	0
2259.2	0.18038	0.196023	0	0
2259.4	0.188684	0.196013	0	0
2259.59	0.19693	0.196021	0	0
2259.77	0.205272	0.196027	0	0
2259.95	0.213594	0.196021	0	0
2260.13	0.221859	0.19602	0	0
2260.29	0.230029	0.196032	0	0
2260.44	0.238313	0.19602	0	0
2260.58	0.246617	0.196031	0	0
2260.71	0.254901	0.19603	0	0
2260.82	0.263338	0.19602	0	0
2260.91	0.271565	0.196025	0	0
2261	0.279926	0.196028	0	0
2261.08	0.288325	0.196018	0	0
2261.15	0.296724	0.196017	0	0
2261.21	0.305256	0.196029	0	0
2261.27	0.313674	0.196025	0	0
2261.32	0.321978	0.196021	0	0
2261.37	0.330605	0.196019	0	0
2261.41	0.339004	0.196027	0	0
2261.45	0.347403	0.196028	0	0
2261.49	0.355821	0.19603	0	0
2261.53	0.364182	0.196024	0	0
2261.56	0.372867	0.196023	0	0
2261.59	0.381533	0.196023	0	0
2261.62	0.38997	0.196019	0	0
2261.65	0.398426	0.196031	0	0
2261.68	0.407302	0.19603	0	0
2261.71	0.41572	0.196032	0	0
2261.73	0.424176	0.196023	0	0
2261.75	0.432518	0.196018	0	0
2261.78	0.441299	0.196025	0	0
2261.8	0.449888	0.196029	0	0
2261.82	0.458497	0.196021	0	0
2261.84	0.467163	0.196018	0	0
2261.87	0.475772	0.196027	0	0
2261.89	0.484228	0.196032	0	0
2261.91	0.492837	0.196025	0	0
2261.93	0.501675	0.196027	0	0
2261.95	0.510513	0.196029	0	0
2261.96	0.518988	0.196023	0	0
2261.98	0.52773	0.196023	0	0
2262	0.536129	0.196032	0	0
2262.02	0.544719	0.196026	0	0
2262.04	0.55369	0.196027	0	0
2262.06	0.562528	0.196021	0	0
2262.08	0.571023	0.196025	0	0
2262.09	0.579479	0.196023	0	0
2262.11	0.588145	0.196026	0	0
2262.13	0.596525	0.196026	0	0
2262.14	0.605153	0.196032	0	0
2262.16	0.613513	0.196029	0	0
2262.18	0.622027	0.196021	0	0
2262.19	0.630483	0.196027	0	0
2262.21	0.639302	0.196024	0	0
2262.23	0.647796	0.196028	0	0
2262.24	0.656386	0.196028	0	0
2262.26	0.664956	0.196026	0	0
2262.28	0.674004	0.196019	0	0
2262.29	0.682498	0.196031	0	0
2262.31	0.690916	0.196028	0	0
2262.33	0.699812	0.196028	0	0
2262.34	0.708573	0.196026	0	0
2262.36	0.717144	0.196032	0	0
2262.37	0.725562	0.196023	0	0
2262.39	0.734151	0.196027	0	0
2262.41	0.742569	0.196023	0	0
2262.42	0.750987	0.196026	0	0
2262.44	0.759577	0.196025	0	0
2262.45	0.768281	0.196021	0	0
2262.47	0.777176	0.196025	0	0
2262.49	0.785613	0.196027	0	0
2262.5	0.794184	0.196028	0	0
2262.52	0.803022	0.196017	0	0
2262.54	0.811726	0.196021	0	0
2262.55	0.82045	0.196029	0	0
2262.57	0.828887	0.196022	0	0
2262.58	0.837667	0.196025	0	0
2262.6	0.846314	0.196021	0	0
2262.61	0.854904	0.196021	0	0
2262.63	0.863417	0.196026	0	0
2262.65	0.871721	0.196028	0	0
2262.66	0.88075	0.196019	0	0
2262.68	0.889339	0.19602	0	0
2262.69	0.897872	0.196024	0	0
2262.71	0.906939	0.196028	0	0
2262.73	0.915853	0.196027	0	0
2262.74	0.924385	0.196029	0	0
2262.76	0.932937	0.19602	0	0
2262.78	0.942004	0.196036	0	0
2262.79	0.950575	0.196018	0	0
2262.81	0.959413	0.196023	0	0
2262.83	0.967792	0.196034	0	0
2262.84	0.976439	0.196026	0	0
2262.86	0.985334	0.196024	0	0
2262.88	0.993829	0.196031	0	0
2262.89	1.00083	0.196023	0	0
2299.1	-0.0501873	0.19603	0	0
2299.1	-0.0409485	0.196025	0	0
2299.12	-0.0321106	0.196027	0	0
2299.18	-0.0234445	0.196025	0	0
2299.26	-0.0149121	0.196028	0	0
2299.38	-0.0065514	0.196031	0	0
2299.54	0.00180928	0.19603	0	0
2299.75	0.0100173	0.196025	0	0
2300.06	0.0184734	0.196026	0	0
2300.48	0.0267004	0.196028	0	0
2301.08	0.0349275	0.196035	0	0
2301.92	0.0431355	0.196033	0	0
2303.14	0.0513434	0.196018	0	0
2304.96	0.0596087	0.196025	0	0
2307.74	0.0677976	0.196025	0	0
2311.77	0.0759865	0.196026	0	0
2315.29	0.0841753	0.196022	0	0
2317.12	0.0924406	0.196025	0	0
2318.21	0.100706	0.196028	0	0
2318.89	0.108952	0.196031	0	0
2319.37	0.117217	0.196024	0	0
2319.75	0.125578	0.196025	0	0
2320.05	0.133729	0.19603	0	0
2320.31	0.142013	0.196028	0	0
2320.56	0.15024	0.196032	0	0
2320.81	0.15862	0.196028	0	0
2321.06	0.167038	0.196021	0	0
2321.3	0.175265	0.196027	0	0
2321.55	0.183645	0.196021	0	0
2321.79	0.192082	0.196025	0	0
2322.02	0.200423	0.196031	0	0
2322.24	0.208688	0.196032	0	0
2322.45	0.217011	0.196025	0	0
2322.64	0.225429	0.196025	0	0
2322.81	0.233637	0.196034	0	0
2322.97	0.24194	0.196021	0	0
2323.11	0.250167	0.196027	0	0
2323.24	0.258452	0.196027	0	0
2323.35	0.266831	0.196025	0	0
2323.45	0.275078	0.196029	0	0
2323.54	0.283495	0.196024	0	0
2323.62	0.291837	0.196022	0	0
2323.69	0.300255	0.196023	0	0
2323.76	0.308845	0.196026	0	0
2323.81	0.317263	0.196025	0	0
2323.87	0.325814	0.196025	0	0
2323.92	0.334499	0.196019	0	0
2323.96	0.343051	0.196019	0	0
2324	0.351583	0.196023	0	0
2324.04	0.36025	0.196028	0	0
2324.08	0.368858	0.19602	0	0
2324.11	0.377334	0.196022	0	0
2324.15	0.385866	0.196032	0	0
2324.18	0.394589	0.196023	0	0
2324.2	0.403007	0.19602	0	0
2324.23	0.41154	0.196023	0	0
2324.26	0.420187	0.196033	0	0
2324.28	0.428605	0.196029	0	0
2324.31	0.437271	0.196025	0	0
2324.33	0.445861	0.196031	0	0
2324.35	0.454355	0.196024	0	0
2324.38	0.463097	0.196029	0	0
2324.4	0.471573	0.196023	0	0
2324.42	0.480334	0.196025	0	0
2324.44	0.489344	0.196028	0	0
2324.46	0.498067	0.196031	0	0
2324.48	0.506657	0.196025	0	0
2324.5	0.515018	0.196017	0	0
2324.52	0.523569	0.196021	0	0
2324.54	0.532063	0.196027	0	0
2324.56	0.54073	0.196034	0	0
2324.58	0.549453	0.196021	0	0
2324.6	0.558176	0.196028	0	0
2324.62	0.566747	0.196032	0	0
2324.64	0.575298	0.196025	0	0
2324.65	0.583812	0.196022	0	0
2324.67	0.592459	0.196038	0	0
2324.69	0.600972	0.196028	0	0
2324.71	0.609944	0.19603	0	0
2324.73	0.618553	0.196027	0	0
2324.74	0.627276	0.196027	0	0
2324.76	0.636209	0.196019	0	0
2324.78	0.644875	0.196025	0	0
2324.8	0.653675	0.196027	0	0
2324.81	0.662456	0.196025	0	0
2324.83	0.671408	0.196026	0	0
2324.85	0.680246	0.196032	0	0
2324.86	0.689027	0.196026	0	0
2324.88	0.697826	0.196029	0	0
2324.9	0.706569	0.196021	0	0
2324.91	0.715235	0.19603	0	0
2324.93	0.723977	0.196025	0	0
2324.95	0.732892	0.196021	0	0
2324.97	0.741997	0.196028	0	0
2324.98	0.750625	0.196016	0	0
2325	0.759214	0.196018	0	0
2325.01	0.767823	0.196027	0	0
2325.03	0.77647	0.196023	0	0
2325.05	0.785556	0.196029	0	0
2325.06	0.794318	0.196024	0	0
2325.08	0.803022	0.196027	0	0
2325.1	0.811707	0.196037	0	0
2325.11	0.820889	0.19603	0	0
2325.13	0.829421	0.196018	0	0
2325.14	0.838049	0.196028	0	0
2325.16	0.846906	0.196028	0	0
2325.18	0.856202	0.196026	0	0
2325.19	0.864773	0.196027	0	0
2325.21	0.873191	0.196029	0	0
2325.23	0.881742	0.19603	0	0
2325.24	0.890141	0.196028	0	0
2325.26	0.898597	0.196028	0	0
2325.27	0.907435	0.196027	0	0
2325.29	0.915987	0.196028	0	0
2325.31	0.92471	0.19603	0	0
2325.32	0.933357	0.19603	0	0
2325.34	0.942061	0.196023	0	0
2325.35	0.95067	0.19602	0	0
2325.37	0.959126	0.196027	0	0
2325.39	0.967735	0.196022	0	0
2325.4	0.97642	0.196027	0	0
2325.42	0.985105	0.196023	0	0
2325.44	0.993752	0.196025	0	0
2325.45	1.00078	0.196023	0	0
2361.66	-0.051218	0.196028	0	0
2361.66	-0.0418075	0.196027	0	0
2361.68	-0.0331605	0.196028	0	0
2361.73	-0.0248953	0.196028	0	0
2361.81	-0.0165346	0.196033	0	0
2361.91	-0.00830752	0.196029	0	0
2362.06	-2.3194e-05	0.196038	0	0
2362.27	0.00837566	0.196034	0	0
2362.56	0.0165645	0.196028	0	0
2362.95	0.0248871	0.196039	0	0
2363.52	0.0331714	0.19603	0	0
2364.31	0.0413794	0.196031	0	0
2365.41	0.0496064	0.196029	0	0
2366.96	0.0578335	0.196028	0	0
2369.24	0.0660796	0.196028	0	0
2372.28	0.0743258	0.196031	0	0
2375.6	0.0829155	0.196029	0	0
2377.66	0.0910662	0.196019	0	0
2378.9	0.0992551	0.196018	0	0
2379.75	0.107501	0.19603	0	0
2380.39	0.115766	0.196023	0	0
2380.9	0.124051	0.19603	0	0
2381.33	0.132488	0.19603	0	0
2381.69	0.140639	0.19603	0	0
2382.03	0.14919	0.196023	0	0
2382.35	0.157589	0.19602	0	0
2382.65	0.165854	0.196023	0	0
2382.95	0.174196	0.196029	0	0
2383.23	0.18248	0.196027	0	0
2383.5	0.190822	0.196028	0	0
2383.75	0.199087	0.196023	0	0
2383.98	0.207314	0.196026	0	0
2384.2	0.215732	0.196027	0	0
2384.4	0.223959	0.196023	0	0
2384.59	0.232167	0.196027	0	0
2384.75	0.240432	0.196026	0	0
2384.9	0.248697	0.196023	0	0
2385.04	0.25702	0.196032	0	0
2385.16	0.265381	0.196023	0	0
2385.26	0.27378	0.19602	0	0
2385.36	0.282045	0.196024	0	0
2385.44	0.290501	0.19603	0	0
2385.52	0.298804	0.196023	0	0
2385.58	0.307165	0.19603	0	0
2385.65	0.315487	0.196027	0	0
2385.7	0.323905	0.196024	0	0
2385.75	0.332381	0.196022	0	0
2385.8	0.340722	0.196025	0	0
2385.84	0.349083	0.196021	0	0
2385.89	0.357654	0.196032	0	0
2385.92	0.365938	0.196024	0	0
2385.96	0.374394	0.196028	0	0
2385.99	0.382659	0.196025	0	0
2386.02	0.390982	0.196022	0	0
2386.06	0.399438	0.19602	0	0
2386.08	0.407913	0.196037	0	0
2386.11	0.416388	0.19603	0	0
2386.14	0.424806	0.196034	0	0
2386.17	0.433281	0.196028	0	0
2386.19	0.442138	0.19602	0	0
2386.22	0.450938	0.196025	0	0
2386.24	0.459681	0.196028	0	0
2386.26	0.468251	0.196023	0	0
2386.29	0.476975	0.196031	0	0
2386.31	0.485278	0.196026	0	0
2386.33	0.494154	0.196025	0	0
2386.35	0.502763	0.19603	0	0
2386.38	0.511353	0.196025	0	0
2386.4	0.519866	0.19602	0	0
2386.42	0.52857	0.196018	0	0
2386.44	0.537007	0.196027	0	0
2386.45	0.545444	0.196028	0	0
2386.47	0.553958	0.196026	0	0
2386.49	0.562414	0.196021	0	0
2386.51	0.570813	0.196032	0	0
2386.53	0.579402	0.196021	0	0
2386.55	0.587763	0.19603	0	0
2386.57	0.59641	0.196025	0	0
2386.59	0.604943	0.196032	0	0
2386.6	0.613628	0.196025	0	0
2386.62	0.622122	0.196023	0	0
2386.64	0.630636	0.196021	0	0
2386.66	0.639225	0.196023	0	0
2386.67	0.647949	0.196025	0	0
2386.69	0.656729	0.196032	0	0
2386.71	0.66593	0.196031	0	0
2386.73	0.674672	0.19603	0	0
2386.74	0.683338	0.196027	0	0
2386.76	0.692024	0.196028	0	0
2386.78	0.700938	0.196037	0	0
2386.8	0.709508	0.196027	0	0
2386.81	0.718423	0.196021	0	0
2386.83	0.727184	0.196023	0	0
2386.85	0.735755	0.196025	0	0
2386.86	0.744383	0.196035	0	0
2386.88	0.753278	0.19603	0	0
2386.9	0.761849	0.196023	0	0
2386.91	0.770343	0.196036	0	0
2386.93	0.778952	0.196023	0	0
2386.95	0.787732	0.196025	0	0
2386.96	0.796112	0.196031	0	0
2386.98	0.804568	0.196032	0	0
2386.99	0.813406	0.196033	0	0
2387.01	0.82211	0.196019	0	0
2387.03	0.830776	0.19603	0	0
2387.04	0.839099	0.196024	0	0
2387.06	0.847746	0.196027	0	0
2387.07	0.856297	0.196021	0	0
2387.09	0.865002	0.196029	0	0
2387.11	0.873782	0.196026	0	0
2387.12	0.882678	0.196029	0	0
2387.14	0.891191	0.196022	0	0
2387.16	0.90022	0.19603	0	0
2387.17	0.908905	0.196031	0	0
2387.19	0.9178	0.196019	0	0
2387.21	0.926313	0.196016	0	0
2387.22	0.935037	0.196029	0	0
2387.24	0.943493	0.196025	0	0
2387.26	0.952216	0.196025	0	0
2387.27	0.960863	0.196025	0	0
2387.29	0.969663	0.196024	0	0
2387.3	0.978234	0.196025	0	0
2387.32	0.986881	0.196036	0	0
2387.34	0.995508	0.196034	0	0
2423.55	-0.0592008	0.19602	0	0
2423.56	-0.0487366	0.19603	0	0
2423.56	-0.0393642	0.19603	0	0
2423.59	-0.0310799	0.196024	0	0
2423.64	-0.0226238	0.196023	0	0
2423.73	-0.0144349	0.196029	0	0
2423.85	-0.00599783	0.196023	0	0
2424.02	0.00263008	0.19603	0	0
2424.25	0.0108571	0.196024	0	0
2424.57	0.0191796	0.196028	0	0
2425.02	0.0274258	0.196026	0	0
2425.65	0.0356529	0.196028	0	0
2426.5	0.0438608	0.196023	0	0
2427.69	0.052107	0.196028	0	0
2429.32	0.060315	0.19603	0	0
2431.51	0.0685993	0.196025	0	0
2434.16	0.0768263	0.196025	0	0
2436.63	0.0850916	0.196023	0	0
2438.4	0.0933186	0.196036	0	0
2439.56	0.101508	0.196028	0	0
2440.45	0.109735	0.196032	0	0
2441.18	0.118076	0.196022	0	0
2441.79	0.126399	0.196019	0	0
2442.28	0.134721	0.196026	0	0
2442.72	0.143006	0.196023	0	0
2443.12	0.151233	0.196025	0	0
2443.51	0.159498	0.196029	0	0
2443.86	0.167801	0.196032	0	0
2444.19	0.176105	0.196027	0	0
2444.51	0.184408	0.196027	0	0
2444.8	0.192692	0.196021	0	0
2445.04	0.200881	0.196027	0	0
2445.28	0.209147	0.196029	0	0
2445.51	0.217603	0.196025	0	0
2445.71	0.225868	0.19603	0	0
2445.9	0.234209	0.19602	0	0
2446.06	0.242532	0.196024	0	0
2446.2	0.250835	0.196025	0	0
2446.33	0.258986	0.196028	0	0
2446.44	0.267232	0.196028	0	0
2446.55	0.275574	0.196033	0	0
2446.64	0.283954	0.196026	0	0
2446.73	0.292333	0.19602	0	0
2446.8	0.300656	0.196027	0	0
2446.87	0.309074	0.196031	0	0
2446.94	0.317702	0.196032	0	0
2446.99	0.326081	0.196021	0	0
2447.05	0.334347	0.196027	0	0
2447.09	0.342784	0.196025	0	0
2447.14	0.351297	0.196028	0	0
2447.18	0.359963	0.196026	0	0
2447.22	0.368477	0.196032	0	0
2447.26	0.377105	0.196024	0	0
2447.3	0.385599	0.196023	0	0
2447.33	0.394189	0.196023	0	0
2447.36	0.402626	0.196026	0	0
2447.39	0.411024	0.196026	0	0
2447.42	0.419633	0.196027	0	0
2447.45	0.428166	0.196026	0	0
2447.48	0.436775	0.196017	0	0
2447.5	0.445269	0.196023	0	0
2447.53	0.453878	0.196027	0	0
2447.55	0.462544	0.196023	0	0
2447.58	0.471592	0.196021	0	0
2447.6	0.480449	0.196026	0	0
2447.63	0.488771	0.196025	0	0
2447.65	0.497418	0.196025	0	0
2447.67	0.505855	0.196021	0	0
2447.69	0.514407	0.196031	0	0
2447.71	0.52292	0.19602	0	0
2447.73	0.531529	0.196021	0	0
2447.75	0.540023	0.19603	0	0
2447.77	0.548518	0.196026	0	0
2447.79	0.557126	0.196026	0	0
2447.81	0.565735	0.196023	0	0
2447.83	0.574516	0.196024	0	0
2447.85	0.582991	0.196023	0	0
2447.87	0.591428	0.196019	0	0
2447.89	0.600151	0.196025	0	0
2447.91	0.608913	0.196024	0	0
2447.93	0.617312	0.196027	0	0
2447.95	0.625749	0.196025	0	0
2447.96	0.634377	0.196031	0	0
2447.98	0.643062	0.196031	0	0
2448	0.652014	0.196026	0	0
2448.02	0.660528	0.196027	0	0
2448.04	0.669194	0.196026	0	0
2448.05	0.677555	0.196027	0	0
2448.07	0.686202	0.196025	0	0
2448.09	0.694696	0.196025	0	0
2448.11	0.703381	0.196027	0	0
2448.12	0.711952	0.19602	0	0
2448.14	0.720541	0.196023	0	0
2448.16	0.729265	0.196017	0	0
2448.17	0.738408	0.196018	0	0
2448.19	0.747418	0.196023	0	0
2448.21	0.756007	0.196019	0	0
2448.23	0.764655	0.196026	0	0
2448.24	0.773378	0.196026	0	0
2448.26	0.782158	0.196027	0	0
2448.28	0.790901	0.196021	0	0
2448.29	0.799796	0.196028	0	0
2448.31	0.808367	0.196027	0	0
2448.33	0.816956	0.196032	0	0
2448.34	0.825699	0.196032	0	0
2448.36	0.834518	0.196019	0	0
2448.38	0.842917	0.196028	0	0
2448.39	0.851621	0.196031	0	0
2448.41	0.860249	0.196025	0	0
2448.43	0.868762	0.196027	0	0
2448.44	0.877486	0.196032	0	0
2448.46	0.886209	0.196021	0	0
2448.47	0.894856	0.19602	0	0
2448.49	0.903713	0.196026	0	0
2448.51	0.912455	0.196013	0	0
2448.52	0.921293	0.196032	0	0
2448.54	0.929959	0.196023	0	0
2448.56	0.938683	0.196026	0	0
2448.57	0.947234	0.196024	0	0
2448.59	0.955767	0.196021	0	0
2448.61	0.964605	0.196017	0	0
2448.62	0.973194	0.196034	0	0
2448.64	0.981765	0.196025	0	0
2448.66	0.990584	0.196027	0	0
2448.67	0.999326	0.196028	0	0
2484.88	-0.0553029	0.196025	0	0
2484.89	-0.0456252	0.196029	0	0
2484.9	-0.0366537	0.196026	0	0
2484.93	-0.0282166	0.196034	0	0
2484.99	-0.0198559	0.196036	0	0
2485.09	-0.0113998	0.196023	0	0
2485.23	-0.00290553	0.196032	0	0
2485.42	0.00543606	0.19603	0	0
2485.67	0.0137395	0.196028	0	0
2486.04	0.022062	0.196028	0	0
2486.55	0.0303654	0.196027	0	0
2487.24	0.0386497	0.196031	0	0
2488.18	0.0469531	0.196032	0	0
2489.43	0.0551611	0.196027	0	0
2491.1	0.0633309	0.196024	0	0
2493.2	0.0716152	0.196022	0	0
2495.41	0.079785	0.196029	0	0
2497.35	0.0879548	0.196029	0	0
2498.78	0.0961246	0.196031	0	0
2500	0.104275	0.196021	0	0
2500.93	0.112521	0.196024	0	0
2501.72	0.120806	0.196028	0	0
2502.37	0.128957	0.196035	0	0
2502.92	0.137374	0.196029	0	0
2503.43	0.145659	0.196027	0	0
2503.9	0.154058	0.196021	0	0
2504.36	0.162418	0.196021	0	0
2504.73	0.17076	0.196025	0	0
2505.07	0.178968	0.196019	0	0
2505.38	0.187214	0.196028	0	0
2505.65	0.19546	0.196026	0	0
2505.9	0.203592	0.196026	0	0
2506.13	0.211895	0.196025	0	0
2506.36	0.220237	0.196029	0	0
2506.56	0.22854	0.196024	0	0
2506.74	0.237015	0.196025	0	0
2506.91	0.245395	0.196023	0	0
2507.05	0.253737	0.196021	0	0
2507.19	0.262117	0.196028	0	0
2507.3	0.270439	0.196023	0	0
2507.41	0.278742	0.196026	0	0
2507.5	0.287199	0.196033	0	0
2507.58	0.295502	0.196025	0	0
2507.66	0.303844	0.196022	0	0
2507.72	0.312128	0.19602	0	0
2507.79	0.320622	0.196025	0	0
2507.84	0.329231	0.196021	0	0
2507.89	0.337611	0.196027	0	0
2507.94	0.346067	0.196016	0	0
2507.99	0.354714	0.19603	0	0
2508.03	0.363056	0.196021	0	0
2508.07	0.371836	0.196025	0	0
2508.11	0.380369	0.19603	0	0
2508.14	0.38913	0.196028	0	0
2508.18	0.397758	0.19603	0	0
2508.21	0.406596	0.196028	0	0
2508.24	0.414957	0.196027	0	0
2508.27	0.423432	0.196024	0	0
2508.3	0.431888	0.196031	0	0
2508.33	0.44042	0.196023	0	0
2508.35	0.448972	0.196028	0	0
2508.38	0.457829	0.196021	0	0
2508.4	0.466247	0.196034	0	0
2508.43	0.474856	0.19602	0	0
2508.45	0.483331	0.196027	0	0
2508.48	0.491787	0.196029	0	0
2508.5	0.500033	0.19603	0	0
2508.52	0.508642	0.196031	0	0
2508.54	0.517251	0.196034	0	0
2508.57	0.525879	0.196023	0	0
2508.59	0.534507	0.196025	0	0
2508.61	0.54344	0.196026	0	0
2508.63	0.552011	0.196024	0	0
2508.65	0.560791	0.196023	0	0
2508.67	0.569419	0.196023	0	0
2508.69	0.577761	0.196025	0	0
2508.71	0.586332	0.196033	0	0
2508.73	0.594902	0.196027	0	0
2508.75	0.60332	0.196018	0	0
2508.77	0.611986	0.196022	0	0
2508.79	0.62029	0.196031	0	0
2508.81	0.629185	0.19602	0	0
2508.83	0.637985	0.196028	0	0
2508.84	0.646345	0.196028	0	0
2508.86	0.655298	0.196011	0	0
2508.88	0.663639	0.196027	0	0
2508.9	0.672248	0.196025	0	0
2508.92	0.680971	0.196021	0	0
2508.94	0.689504	0.19602	0	0
2508.95	0.698189	0.196026	0	0
2508.97	0.706531	0.196023	0	0
2508.99	0.715178	0.196018	0	0
2509.01	0.723386	0.196027	0	0
2509.02	0.732033	0.196022	0	0
2509.04	0.740221	0.196022	0	0
2509.06	0.748849	0.196022	0	0
2509.08	0.757515	0.196015	0	0
2509.09	0.766392	0.196018	0	0
2509.11	0.774905	0.196023	0	0
2509.13	0.783418	0.196034	0	0
2509.14	0.791913	0.196028	0	0
2509.16	0.800617	0.196026	0	0
2509.18	0.809073	0.196027	0	0
2509.2	0.81772	0.196021	0	0
2509.21	0.826462	0.196028	0	0
2509.23	0.834766	0.196031	0	0
2509.25	0.843165	0.196029	0	0
2509.26	0.85185	0.196033	0	0
2509.28	0.860344	0.196019	0	0
2509.3	0.868991	0.196025	0	0
2509.31	0.877848	0.196023	0	0
2509.33	0.886323	0.196022	0	0
2509.35	0.894989	0.196023	0	0
2509.36	0.903522	0.196032	0	0
2509.38	0.912169	0.196023	0	0
2509.4	0.920835	0.19603	0	0
2509.41	0.929348	0.196021	0	0
2509.43	0.938072	0.196027	0	0
2509.45	0.946986	0.196033	0	0
2509.46	0.956072	0.196028	0	0
2509.48	0.964566	0.196026	0	0
2509.5	0.973156	0.196029	0	0
2509.51	0.982051	0.196028	0	0
2509.53	0.990546	0.196028	0	0
2509.55	0.998906	0.196028	0	0
2545.76	-0.0557229	0.196026	0	0
2545.76	-0.0461405	0.196028	0	0
2545.77	-0.0369018	0.196028	0	0
2545.8	-0.0284075	0.196028	0	0
2545.87	-0.0200659	0.196023	0	0
2545.96	-0.0118198	0.196027	0	0
2546.08	-0.00353544	0.196025	0	0
2546.26	0.0048825	0.196031	0	0
2546.51	0.0131668	0.196023	0	0
2546.84	0.021413	0.19603	0	0
2547.33	0.0299073	0.196027	0	0
2547.99	0.0381152	0.196025	0	0
2548.87	0.0464187	0.19603	0	0
2550.01	0.0547603	0.19603	0	0
2551.46	0.0629873	0.196027	0	0
2553.2	0.0713098	0.196019	0	0
2555.04	0.0796132	0.19603	0	0
2556.71	0.0879357	0.196026	0	0
2558.17	0.0961437	0.196033	0	0
2559.38	0.104428	0.19602	0	0
2560.42	0.112655	0.196025	0	0
2561.25	0.120978	0.196023	0	0
2561.94	0.129166	0.196025	0	0
2562.61	0.137317	0.196023	0	0
2563.23	0.145582	0.196032	0	0
2563.76	0.153867	0.196028	0	0
2564.24	0.162094	0.19603	0	0
2564.67	0.170302	0.19603	0	0
2565.04	0.178605	0.196018	0	0
2565.36	0.186737	0.196023	0	0
2565.65	0.194945	0.196023	0	0
2565.92	0.203248	0.196025	0	0
2566.18	0.211533	0.196021	0	0
2566.42	0.219874	0.196021	0	0
2566.62	0.228158	0.19602	0	0
2566.8	0.236443	0.196025	0	0
2566.97	0.24488	0.196025	0	0
2567.12	0.253088	0.19603	0	0
2567.25	0.261372	0.196026	0	0
2567.36	0.269695	0.19602	0	0
2567.47	0.278093	0.196027	0	0
2567.56	0.286321	0.196026	0	0
2567.64	0.294681	0.196027	0	0
2567.71	0.303118	0.196028	0	0
2567.78	0.311574	0.196026	0	0
2567.85	0.319916	0.196024	0	0
2567.9	0.328143	0.196021	0	0
2567.96	0.336656	0.196035	0	0
2568.01	0.345093	0.196025	0	0
2568.05	0.353435	0.196028	0	0
2568.09	0.361834	0.196028	0	0
2568.14	0.370405	0.196032	0	0
2568.17	0.378975	0.196024	0	0
2568.21	0.38745	0.196028	0	0
2568.25	0.395907	0.196026	0	0
2568.28	0.404363	0.19602	0	0
2568.31	0.412876	0.196021	0	0
2568.34	0.421313	0.196027	0	0
2568.37	0.429769	0.196032	0	0
2568.4	0.438321	0.196025	0	0
2568.43	0.44691	0.196026	0	0
2568.46	0.455596	0.19602	0	0
2568.49	0.464147	0.196025	0	0
2568.51	0.472832	0.196029	0	0
2568.54	0.481422	0.196029	0	0
2568.57	0.490126	0.19603	0	0
2568.59	0.498907	0.196027	0	0
2568.61	0.507325	0.196034	0	0
2568.64	0.515857	0.196029	0	0
2568.66	0.524352	0.19603	0	0
2568.69	0.533457	0.19603	0	0
2568.71	0.541894	0.196023	0	0
2568.73	0.550636	0.196038	0	0
2568.75	0.559093	0.196027	0	0
2568.77	0.567663	0.196029	0	0
2568.79	0.576291	0.19602	0	0
2568.82	0.584938	0.196027	0	0
2568.84	0.593432	0.196026	0	0
2568.86	0.60206	0.196027	0	0
2568.88	0.611013	0.196027	0	0
2568.9	0.619755	0.196031	0	0
2568.92	0.628383	0.19603	0	0
2568.94	0.637087	0.196025	0	0
2568.96	0.646078	0.19603	0	0
2568.98	0.655107	0.196029	0	0
2569	0.663754	0.196029	0	0
2569.01	0.67242	0.196029	0	0
2569.03	0.6808	0.196028	0	0
2569.05	0.689275	0.196025	0	0
2569.07	0.697845	0.196023	0	0
2569.09	0.70676	0.19602	0	0
2569.11	0.715617	0.196017	0	0
2569.12	0.724168	0.196032	0	0
2569.14	0.732701	0.196032	0	0
2569.16	0.741577	0.196021	0	0
2569.18	0.750396	0.196012	0	0
2569.2	0.759157	0.196022	0	0
2569.21	0.767651	0.196022	0	0
2569.23	0.776222	0.196027	0	0
2569.25	0.784697	0.196021	0	0
2569.27	0.793401	0.196026	0	0
2569.28	0.801839	0.196027	0	0
2569.3	0.810371	0.196028	0	0
2569.32	0.81898	0.196024	0	0
2569.33	0.82736	0.196029	0	0
2569.35	0.836083	0.19603	0	0
2569.37	0.845112	0.196025	0	0
2569.39	0.853358	0.196025	0	0
2569.4	0.862005	0.196025	0	0
2569.42	0.870709	0.196024	0	0
2569.44	0.879452	0.196029	0	0
2569.45	0.888022	0.196021	0	0
2569.47	0.896917	0.196016	0	0
2569.49	0.905431	0.196027	0	0
2569.5	0.91383	0.196027	0	0
2569.52	0.922458	0.196026	0	0
2569.54	0.931143	0.196023	0	0
2569.56	0.939618	0.19603	0	0
2569.57	0.948418	0.19603	0	0
2569.59	0.957217	0.196027	0	0
2569.61	0.965845	0.196025	0	0
2569.63	0.975103	0.19603	0	0
2569.64	0.98354	0.196024	0	0
2569.66	0.992302	0.196019	0	0
2569.68	1.00041	0.196032	0	0
2569.68	1.00082	0.196021	0	0