File: EXPERIMENTAL/DATA/Electrochemical-cycling/S-series/2024-06-27_S18_Icell_t1800_C0010_J01_deltaX-110,1mm_02_MB_C05.txt
time/s	Ewe/V	I/mA	error	Ece/V
60.053	2.80555	-0.0250213	0	-0.000717146
60.1732	0.00924352	-6.05816	0	1.14163e-05
60.1736	0.00916716	-6.00087	0	-0.000160373
60.1742	0.00930079	-5.93466	0	-8.4022e-05
60.1748	0.00937715	-5.87608	0	-6.49344e-05
60.1754	0.00937715	-5.80287	0	-8.4022e-05
60.176	0.00933897	-5.73411	0	1.14163e-05
60.1766	0.00937715	-5.673	0	-6.49344e-05
60.1772	0.00924352	-5.61443	0	3.05039e-05
60.1778	0.0092817	-5.54312	0	1.14163e-05
60.1786	0.00931988	-5.47755	0	-6.49344e-05
60.1792	0.0092817	-5.41962	0	-6.49344e-05
60.1798	0.00931988	-5.36295	0	-6.49344e-05
60.1804	0.00933897	-5.30757	0	-4.58467e-05
60.181	0.00930079	-5.25345	0	1.14163e-05
60.1818	0.00918625	-5.18597	0	-2.6759e-05
60.1824	0.00939624	-5.13567	0	6.86792e-05
60.183	0.00935806	-5.08283	0	3.05039e-05
60.1838	0.00924352	-5.02363	0	-7.67139e-06
60.1846	0.00922443	-4.95869	0	6.86792e-05
60.1854	0.00930079	-4.90076	0	-0.00010311
60.1862	0.00922443	-4.84537	0	-7.67139e-06
60.187	0.0092817	-4.77534	0	-0.000122197
60.188	0.00937715	-4.71613	0	3.05039e-05
60.1888	0.00926261	-4.66456	0	-4.58467e-05
60.1896	0.0092817	-4.60918	0	-7.67139e-06
60.1904	0.00930079	-4.55315	0	-8.4022e-05
60.1914	0.00935806	-4.49713	0	1.14163e-05
60.1924	0.00930079	-4.43283	0	-4.58467e-05
60.1934	0.00920534	-4.37808	0	3.05039e-05
60.1944	0.00930079	-4.32078	0	6.86792e-05
60.1954	0.00939624	-4.2673	0	-6.49344e-05
60.1964	0.00941533	-4.21191	0	-6.49344e-05
60.1976	0.00935806	-4.15271	0	-7.67139e-06
60.1986	0.00931988	-4.09732	0	-2.6759e-05
60.1996	0.00931988	-4.04448	0	-0.000160373
60.201	0.00922443	-3.98463	0	-0.000122197
60.202	0.00930079	-3.92988	0	-8.4022e-05
60.2032	0.00924352	-3.87895	0	-6.49344e-05
60.2046	0.00933897	-3.81656	0	-8.4022e-05
60.2058	0.00930079	-3.76372	0	-0.000122197
60.2072	0.00935806	-3.70642	0	-0.000122197
60.209	0.00926261	-3.64531	0	-8.4022e-05
60.2104	0.0092817	-3.58737	0	3.05039e-05
60.212	0.00939624	-3.52562	0	-4.58467e-05
60.2138	0.00930079	-3.46196	0	3.05039e-05
60.2156	0.00935806	-3.40402	0	3.05039e-05
60.2174	0.00933897	-3.34545	0	-2.6759e-05
60.2192	0.00918625	-3.29006	0	-0.000122197
60.221	0.00941533	-3.23595	0	1.14163e-05
60.2226	0.00926261	-3.18565	0	-0.000141285
60.2244	0.0092817	-3.13472	0	1.14163e-05
60.2262	0.00930079	-3.08252	0	-0.000141285
60.2282	0.00926261	-3.01949	0	-7.67139e-06
60.2306	0.00926261	-2.96856	0	-7.67139e-06
60.2326	0.00933897	-2.91254	0	-0.00010311
60.235	0.00933897	-2.86033	0	-7.67139e-06
60.237	0.00926261	-2.8094	0	-6.49344e-05
60.2394	0.00933897	-2.75656	0	-0.000160373
60.2418	0.00931988	-2.70627	0	-7.67139e-06
60.2442	0.00924352	-2.65597	0	1.14163e-05
60.2468	0.0092817	-2.6025	0	-2.6759e-05
60.2494	0.00924352	-2.55156	0	-6.49344e-05
60.252	0.00931988	-2.50063	0	-6.49344e-05
60.2552	0.00922443	-2.44716	0	-7.67139e-06
60.258	0.00933897	-2.39622	0	-4.58467e-05
60.261	0.00941533	-2.34402	0	-0.000122197
60.2648	0.00920534	-2.288	0	-4.58467e-05
60.2682	0.00933897	-2.23516	0	-0.00010311
60.272	0.00924352	-2.18359	0	-0.00010311
60.273	0.0092817	-2.24283	0	1.14163e-05
60.3032	0.00930079	-1.84318	0	-0.000141285
60.3084	0.00930079	-1.79283	0	-6.49344e-05
60.314	0.00933897	-1.74192	0	3.05039e-05
60.32	0.00933897	-1.69005	0	-2.6759e-05
60.3262	0.00930079	-1.63989	0	3.05039e-05
60.3328	0.00933897	-1.58917	0	-0.000141285
60.34	0.00924352	-1.53768	0	-6.49344e-05
60.3478	0.00926261	-1.4867	0	-4.58467e-05
60.3556	0.00924352	-1.43661	0	3.05039e-05
60.3642	0.0092817	-1.38626	0	3.05039e-05
60.3738	0.00937715	-1.33554	0	-7.67139e-06
60.3838	0.00922443	-1.28519	0	1.14163e-05
60.3946	0.0092817	-1.2346	0	-6.49344e-05
60.4066	0.00926261	-1.18419	0	3.05039e-05
60.4194	0.00924352	-1.13404	0	8.77669e-05
60.4338	0.00939624	-1.08344	0	4.95916e-05
60.4492	0.00931988	-1.0329	0	-7.67139e-06
60.4664	0.00930079	-0.982877	0	4.95916e-05
60.4858	0.00931988	-0.932533	0	-4.58467e-05
60.5072	0.00935806	-0.882125	0	-7.67139e-06
60.5314	0.00922443	-0.83159	0	-7.67139e-06
60.5592	0.00922443	-0.781055	0	-8.4022e-05
60.5912	0.00933897	-0.730139	0	-6.49344e-05
60.6272	0.00926261	-0.680113	0	6.86792e-05
60.6696	0.00930079	-0.629578	0	-4.58467e-05
60.7198	0.00931988	-0.579298	0	-2.6759e-05
60.78	0.00935806	-0.528699	0	-0.00017946
60.8528	0.00935806	-0.477782	0	1.14163e-05
60.9434	0.00933897	-0.427757	0	-4.58467e-05
61.0668	0.00931988	-0.377679	0	0.000125942
61.2194	0.00933897	-0.327538	0	-7.67139e-06
61.4274	0.00926261	-0.277537	0	-2.6759e-05
61.7258	0.00926261	-0.227497	0	1.14163e-05
62.1914	0.00926261	-0.177394	0	-0.000122197
63.0128	0.00937715	-0.127361	0	-2.6759e-05
64.841	0.00920534	-0.0773528	0	-2.6759e-05
73.2832	0.00920534	-0.0273236	0	-2.6759e-05
83.2832	0.00931988	-0.0152891	0	-6.49344e-05
93.2832	0.0092817	-0.0105626	0	-7.67139e-06
103.283	0.0092817	-0.0079016	0	-7.67139e-06
113.283	0.00920534	-0.00644636	0	4.95916e-05
123.283	0.0092817	-0.00527683	0	-0.00010311
133.283	0.00935806	-0.00447508	0	4.95916e-05
143.283	0.00920534	-0.0039708	0	-6.49344e-05
153.283	0.00918625	-0.00354783	0	-2.6759e-05
163.283	0.00922443	-0.00320149	0	1.14163e-05
173.283	0.00930079	-0.00297088	0	-8.4022e-05
183.283	0.0092817	-0.00268463	0	0.000106855
193.283	0.00926261	-0.00247966	0	6.86792e-05
203.283	0.0092817	-0.00235637	0	1.14163e-05
213.283	0.00933897	-0.00219361	0	-2.6759e-05
223.283	0.00926261	-0.00203492	0	1.14163e-05
233.283	0.00922443	-0.00187337	0	-4.58467e-05
243.283	0.00931988	-0.00182168	0	4.95916e-05
253.283	0.00937715	-0.00168744	0	-0.00010311
263.283	0.00941533	-0.00164466	0	-7.67139e-06
273.283	0.00930079	-0.0015679	0	-6.49344e-05
283.283	0.00916716	-0.00149183	0	-7.67139e-06
293.283	0.0092817	-0.00145237	0	-0.000141285
303.283	0.00930079	-0.00134759	0	-2.6759e-05
313.283	0.00924352	-0.00132302	0	-2.6759e-05
323.283	0.00920534	-0.00126535	0	8.77669e-05
333.283	0.00930079	-0.00124129	0	3.05039e-05
343.283	0.00926261	-0.00124053	0	-2.6759e-05
353.283	0.00926261	-0.00117286	0	-2.6759e-05
363.283	0.0092817	-0.0011355	0	-7.67139e-06
373.283	0.00933897	-0.00108114	0	3.05039e-05
383.283	0.00926261	-0.00107879	0	-0.000141285
393.283	0.00922443	-0.00103327	0	1.14163e-05
403.283	0.00920534	-0.00102831	0	8.77669e-05
413.283	0.00931988	-0.000971848	0	-0.000160373
423.283	0.0092817	-0.000971339	0	6.86792e-05
433.283	0.00922443	-0.000915133	0	6.86792e-05
443.283	0.00933897	-0.000881334	0	-7.67139e-06
453.283	0.00924352	-0.000874332	0	-6.49344e-05
463.283	0.0092817	-0.000841041	0	-6.49344e-05
473.283	0.00920534	-0.000820418	0	-6.49344e-05
483.283	0.00931988	-0.000795656	0	4.95916e-05
493.283	0.00916716	-0.00081819	0	-0.000160373
503.283	0.00933897	-0.00081087	0	-4.58467e-05
513.283	0.00924352	-0.000815007	0	-0.000198548
523.283	0.00924352	-0.000752882	0	-2.6759e-05
533.283	0.0092817	-0.000739896	0	-0.00010311
543.283	0.00935806	-0.000734995	0	4.95916e-05
553.283	0.00935806	-0.00070877	0	-0.00010311
563.283	0.00922443	-0.000730603	0	-7.67139e-06
573.283	0.00922443	-0.000680635	0	-4.58467e-05
583.283	0.00930079	-0.00066364	0	-7.67139e-06
593.283	0.0092817	-0.000647727	0	-2.6759e-05
603.283	0.0092817	-0.000676116	0	-8.4022e-05
613.283	0.00926261	-0.000680444	0	3.05039e-05
623.283	0.00933897	-0.000600814	0	6.86792e-05
633.283	0.00933897	-0.000619656	0	0.000106855
643.283	0.00922443	-0.000617173	0	-8.4022e-05
653.283	0.00933897	-0.000648554	0	1.14163e-05
663.283	0.00926261	-0.000572998	0	-7.67139e-06
673.283	0.0092817	-0.000567205	0	1.14163e-05
683.283	0.00912898	-0.000605334	0	-8.4022e-05
693.283	0.00931988	-0.000541362	0	-4.58467e-05
703.283	0.00931988	-0.000551738	0	-0.000141285
713.283	0.00926261	-0.000547855	0	-4.58467e-05
723.283	0.00935806	-0.000521566	0	1.14163e-05
733.283	0.00937715	-0.000546327	0	1.14163e-05
743.283	0.00931988	-0.000512336	0	-2.6759e-05
753.283	0.00931988	-0.000536461	0	-7.67139e-06
763.283	0.00933897	-0.000506289	0	4.95916e-05
773.283	0.00943442	-0.000533596	0	-4.58467e-05
783.283	0.00931988	-0.000487257	0	-2.6759e-05
793.283	0.00935806	-0.0005117	0	-4.58467e-05
803.283	0.00933897	-0.000501897	0	-4.58467e-05
813.283	0.00933897	-0.000437926	0	-0.000122197
823.283	0.00935806	-0.000492986	0	-4.58467e-05
833.283	0.00935806	-0.000493049	0	-8.4022e-05
843.283	0.00922443	-0.000481656	0	6.86792e-05
853.283	0.00931988	-0.000459441	0	-8.4022e-05
863.283	0.00933897	-0.000469498	0	-0.00010311
873.283	0.00931988	-0.000437226	0	-7.67139e-06
883.283	0.00924352	-0.000441872	0	0.000125942
893.283	0.00926261	-0.000480701	0	-4.58467e-05
903.283	0.00922443	-0.000401516	0	8.77669e-05
913.283	0.00926261	-0.000441809	0	-0.000141285
923.283	0.00933897	-0.000432388	0	4.95916e-05
933.283	0.0092817	-0.000452948	0	8.77669e-05
943.283	0.00930079	-0.000394769	0	1.14163e-05
953.283	0.00924352	-0.000436143	0	-6.49344e-05
963.283	0.00931988	-0.000383757	0	0.000164117
973.283	0.0092817	-0.000399225	0	-2.6759e-05
983.283	0.00926261	-0.000375227	0	-8.4022e-05
993.283	0.00920534	-0.00042214	0	8.77669e-05
1003.28	0.0092817	-0.000362369	0	-0.000122197
1013.28	0.00926261	-0.000381274	0	-0.00010311
1023.28	0.00930079	-0.000365679	0	6.86792e-05
1033.28	0.00926261	-0.000379938	0	-2.6759e-05
1043.28	0.00922443	-0.000408072	0	-4.58467e-05
1053.28	0.00926261	-0.000399543	0	-0.000141285
1063.28	0.00943442	-0.000361924	0	4.95916e-05
1073.28	0.00937715	-0.000371663	0	-6.49344e-05
1083.28	0.00926261	-0.000403171	0	-7.67139e-06
1093.28	0.00933897	-0.000308901	0	-6.49344e-05
1103.28	0.00926261	-0.000397251	0	-6.49344e-05
1113.28	0.00931988	-0.000346711	0	6.86792e-05
1123.28	0.00930079	-0.000343019	0	-4.58467e-05
1133.28	0.00930079	-0.000363261	0	-7.67139e-06
1143.28	0.00914807	-0.000351676	0	-2.6759e-05
1153.28	0.00930079	-0.000368162	0	-4.58467e-05
1163.28	0.0092817	-0.000316412	0	-0.000217636
1173.28	0.00933897	-0.000364088	0	3.05039e-05
1183.28	0.00931988	-0.00032857	0	4.95916e-05
1193.28	0.00920534	-0.000333471	0	8.77669e-05
1203.28	0.00918625	-0.000333471	0	-2.6759e-05
1213.28	0.00935806	-0.000322523	0	8.77669e-05
1223.28	0.00931988	-0.000325069	0	-6.49344e-05
1233.28	0.0092817	-0.000347538	0	1.14163e-05
1243.28	0.00926261	-0.000324305	0	1.14163e-05
1253.28	0.0092817	-0.000319276	0	4.95916e-05
1263.28	0.00922443	-0.000340664	0	-2.6759e-05
1273.28	0.00926261	-0.000349894	0	-0.00010311
1283.28	0.00931988	-0.000296107	0	3.05039e-05
1293.28	0.00924352	-0.000302917	0	1.14163e-05
1303.28	0.00933897	-0.000305973	0	-8.4022e-05
1313.28	0.00922443	-0.000278156	0	4.95916e-05
1323.28	0.0092817	-0.000301072	0	-4.58467e-05
1333.28	0.00926261	-0.000329015	0	-4.58467e-05
1343.28	0.00924352	-0.00030018	0	-0.000122197
1353.28	0.00931988	-0.000283121	0	3.05039e-05
1363.28	0.00930079	-0.000334171	0	4.95916e-05
1373.28	0.00933897	-0.000298653	0	-8.4022e-05
1383.28	0.00916716	-0.000282739	0	8.77669e-05
1393.28	0.00922443	-0.000289487	0	0.000106855
1403.28	0.00926261	-0.000279939	0	-0.00010311
1413.28	0.00931988	-0.000303363	0	-0.00010311
1423.28	0.00933897	-0.000316985	0	-0.000122197
1433.28	0.00926261	-0.000293433	0	-8.4022e-05
1443.28	0.00933897	-0.000267781	0	-2.6759e-05
1453.28	0.00935806	-0.000237036	0	-6.49344e-05
1463.28	0.00920534	-0.000258551	0	-2.6759e-05
1473.28	0.00931988	-0.000273382	0	-2.6759e-05
1483.28	0.00924352	-0.000258551	0	-0.000122197
1493.28	0.00926261	-0.000251677	0	-8.4022e-05
1503.28	0.00922443	-0.000274528	0	-0.000141285
1513.28	0.00926261	-0.000236718	0	8.77669e-05
1523.28	0.00926261	-0.000250149	0	-6.49344e-05
1533.28	0.00920534	-0.000245884	0	-6.49344e-05
1543.28	0.00930079	-0.000274337	0	1.14163e-05
1553.28	0.00926261	-0.000258679	0	-6.49344e-05
1563.28	0.00931988	-0.000251613	0	3.05039e-05
1573.28	0.00926261	-0.00024703	0	-2.6759e-05
1583.28	0.00933897	-0.000236145	0	-0.000122197
1593.28	0.00935806	-0.000282548	0	-4.58467e-05
1603.28	0.00920534	-0.000343719	0	-2.6759e-05
1613.28	0.00910989	-0.000268227	0	4.95916e-05
1623.28	0.0092817	-0.000278666	0	3.05039e-05
1633.28	0.00926261	-0.000277393	0	-7.67139e-06
1643.28	0.00914807	-0.000267017	0	-7.67139e-06
1653.28	0.0092817	-0.000266062	0	-0.00010311
1663.28	0.0092817	-0.000285413	0	0.000106855
1673.28	0.00926261	-0.000263962	0	1.14163e-05
1683.28	0.00926261	-0.000229271	0	-0.000141285
1693.28	0.00930079	-0.000232772	0	-2.6759e-05
1703.28	0.0092817	-0.000265871	0	-7.67139e-06
1713.28	0.00926261	-0.000244038	0	-0.000122197
1723.28	0.00930079	-0.000268672	0	-7.67139e-06
1733.28	0.00920534	-0.000275228	0	-7.67139e-06
1743.28	0.0092817	-0.000301008	0	3.05039e-05
1753.28	0.00931988	-0.000268036	0	0.000106855
1763.28	0.00922443	-0.000258869	0	-0.000198548
1773.28	0.00937715	-0.000228507	0	-4.58467e-05
1783.28	0.00931988	-0.000202664	0	-2.6759e-05
1793.28	0.00920534	-0.000265298	0	-4.58467e-05
1803.28	0.00912898	-0.000222905	0	-7.67139e-06
1813.28	0.00935806	-0.000198654	0	-4.58467e-05
1823.28	0.00930079	-0.000265808	0	-7.67139e-06
1833.28	0.00922443	-0.000233408	0	-0.00010311
1843.28	0.00926261	-0.000237546	0	-0.00010311
1853.28	0.00935806	-0.000243529	0	-7.67139e-06
1860.05	0.00926261	-0.000185859	0	-4.58467e-05