File: EXPERIMENTAL/DATA/Electrochemical-cycling/S-series/2024-06-27_S17_Icell_t1800_C0010_J01_deltaX-110,3mm_04_CP_C04.txt
time/s	Ewe/V	I/mA	error	Ece/V
1860.21	0.0022812	-0.194747	0	-0.000304428
1860.21	-0.000845843	-0.195982	0	-0.000224257
1860.21	-0.00204651	-0.195981	0	4.86194e-05
1860.21	-0.00353554	-0.19598	0	-4.68203e-05
1860.21	-0.00489094	-0.195982	0	-2.77323e-05
1860.21	-0.00655178	-0.195977	0	4.86194e-05
1860.21	-0.00767809	-0.195978	0	1.04435e-05
1860.21	-0.00884259	-0.195986	0	1.04435e-05
1860.21	-0.00996891	-0.195977	0	4.86194e-05
1860.21	-0.0113434	-0.195979	0	-6.59082e-05
1860.21	-0.0123552	-0.195979	0	-8.49961e-05
1860.21	-0.0136724	-0.195984	0	-2.77323e-05
1860.21	-0.0146842	-0.195982	0	0.000105883
1860.21	-0.0159823	-0.195982	0	0.000124971
1860.21	-0.0175095	-0.195983	0	-0.000123172
1860.21	-0.0186549	-0.195983	0	-8.49961e-05
1860.21	-0.0198194	-0.195981	0	2.95314e-05
1860.21	-0.0208885	-0.19598	0	-6.59082e-05
1860.21	-0.022072	-0.195983	0	8.67952e-05
1860.21	-0.0232747	-0.19598	0	0.000105883
1860.22	-0.024382	-0.195977	0	1.04435e-05
1860.22	-0.0255655	-0.195975	0	-6.59082e-05
1860.22	-0.02673	-0.195979	0	2.95314e-05
1860.22	-0.0279136	-0.195986	0	-4.68203e-05
1860.22	-0.0290018	-0.195981	0	-4.68203e-05
1860.22	-0.0302044	-0.19598	0	4.86194e-05
1860.22	-0.0316553	-0.19598	0	4.86194e-05
1860.22	-0.0327816	-0.195981	0	0.000105883
1860.22	-0.0340416	-0.195986	0	-0.000123172
1860.22	-0.0352633	-0.195979	0	2.95314e-05
1860.22	-0.0365424	-0.195984	0	6.77073e-05
1860.22	-0.0376496	-0.195987	0	6.77073e-05
1860.22	-0.0389095	-0.195984	0	-2.77323e-05
1860.22	-0.0399213	-0.195981	0	-8.64441e-06
1860.22	-0.0410095	-0.19598	0	0.000105883
1860.23	-0.042174	-0.195987	0	4.86194e-05
1860.23	-0.0436248	-0.195982	0	1.04435e-05
1860.23	-0.0447702	-0.195987	0	-4.68203e-05
1860.23	-0.0461256	-0.195984	0	0.000163147
1860.23	-0.047271	-0.195982	0	2.95314e-05
1860.23	-0.0484928	-0.195984	0	-4.68203e-05
1860.23	-0.0497336	-0.195983	0	4.86194e-05
1860.23	-0.0508981	-0.195983	0	0.000124971
1860.23	-0.0520626	-0.195979	0	-6.59082e-05
1860.23	-0.0532462	-0.195986	0	-4.68203e-05
1860.23	-0.0543916	-0.195979	0	0.000105883
1860.23	-0.0554989	-0.195982	0	-4.68203e-05
1860.23	-0.0566634	-0.195982	0	-2.77323e-05
1860.24	-0.057866	-0.195982	0	4.86194e-05
1860.24	-0.0588969	-0.195981	0	2.95314e-05
1860.24	-0.0601187	-0.195982	0	4.86194e-05
1860.24	-0.0613404	-0.195975	0	0.000182235
1860.24	-0.0623522	-0.195982	0	-4.68203e-05
1860.24	-0.0634213	-0.195981	0	-2.77323e-05
1860.24	-0.0645858	-0.195982	0	-6.59082e-05
1860.24	-0.0658266	-0.195981	0	6.77073e-05
1860.24	-0.0668575	-0.195981	0	0.000124971
1860.24	-0.0678693	-0.195977	0	-0.00014226
1860.24	-0.069091	-0.195976	0	8.67952e-05
1860.25	-0.0703892	-0.195978	0	0.000105883
1860.25	-0.0715537	-0.195984	0	4.86194e-05
1860.25	-0.0727182	-0.195983	0	0.000163147
1860.25	-0.0738636	-0.195984	0	2.95314e-05
1860.25	-0.0748753	-0.19598	0	0.000124971
1860.25	-0.0759253	-0.195984	0	-6.59082e-05
1860.25	-0.0771471	-0.195982	0	-8.64441e-06
1860.25	-0.0783688	-0.195986	0	4.86194e-05
1860.25	-0.0796479	-0.195982	0	8.67952e-05
1860.25	-0.0807551	-0.195982	0	6.77073e-05
1860.26	-0.0818814	-0.195982	0	-8.64441e-06
1860.26	-0.0829505	-0.195977	0	-8.64441e-06
1860.26	-0.0839813	-0.195984	0	0.000105883
1860.26	-0.0850886	-0.195986	0	0.000105883
1860.26	-0.0864058	-0.195987	0	-8.64441e-06
1860.26	-0.0874939	-0.195981	0	-2.77323e-05
1860.26	-0.088582	-0.195982	0	-8.64441e-06
1860.26	-0.0897275	-0.195979	0	-2.77323e-05
1860.26	-0.0907583	-0.195986	0	6.77073e-05
1860.27	-0.0918083	-0.195981	0	-8.64441e-06
1860.27	-0.09303	-0.195983	0	1.04435e-05
1860.27	-0.09429	-0.195993	0	4.86194e-05
1860.27	-0.0954354	-0.195983	0	-6.59082e-05
1860.27	-0.096619	-0.195988	0	4.86194e-05
1860.27	-0.0976308	-0.195981	0	2.95314e-05
1860.27	-0.0987762	-0.19598	0	1.04435e-05
1860.27	-0.099807	-0.195984	0	1.04435e-05
1860.28	-0.100838	-0.195979	0	4.86194e-05
1860.28	-0.101983	-0.195982	0	-2.77323e-05
1860.28	-0.103033	-0.195981	0	4.86194e-05
1860.28	-0.104064	-0.195984	0	-6.59082e-05
1860.28	-0.105229	-0.195981	0	2.95314e-05
1860.28	-0.106279	-0.195982	0	6.77073e-05
1860.28	-0.107309	-0.195981	0	-4.68203e-05
1860.29	-0.10834	-0.195988	0	4.86194e-05
1860.29	-0.109409	-0.195977	0	4.86194e-05
1860.29	-0.110612	-0.195986	0	6.77073e-05
1860.29	-0.111662	-0.195979	0	2.95314e-05
1860.29	-0.112846	-0.195981	0	-6.59082e-05
1860.29	-0.113915	-0.195983	0	-2.77323e-05
1860.29	-0.114946	-0.195981	0	1.04435e-05
1860.3	-0.116015	-0.195986	0	1.04435e-05
1860.3	-0.11716	-0.195983	0	1.04435e-05
1860.3	-0.118191	-0.195983	0	-0.000104084
1860.3	-0.119241	-0.195983	0	-4.68203e-05
1860.3	-0.120272	-0.195982	0	8.67952e-05
1860.3	-0.121283	-0.195986	0	2.95314e-05
1860.31	-0.122333	-0.195984	0	1.04435e-05
1860.31	-0.123422	-0.195979	0	0.000105883
1860.31	-0.124433	-0.195985	0	4.86194e-05
1860.31	-0.125445	-0.195983	0	-2.77323e-05
1860.31	-0.126476	-0.195981	0	0.000105883
1860.32	-0.127526	-0.195982	0	1.04435e-05
1860.32	-0.128633	-0.195983	0	0.000144059
1860.32	-0.129721	-0.195983	0	-4.68203e-05
1860.32	-0.130905	-0.195983	0	8.67952e-05
1860.33	-0.132031	-0.195984	0	4.86194e-05
1860.33	-0.133043	-0.195984	0	-2.77323e-05
1860.33	-0.134055	-0.195988	0	1.04435e-05
1860.33	-0.135143	-0.195981	0	0.000124971
1860.34	-0.136231	-0.195982	0	-6.59082e-05
1860.34	-0.137281	-0.195982	0	8.67952e-05
1860.34	-0.138331	-0.195975	0	0.000144059
1860.34	-0.1394	-0.195984	0	4.86194e-05
1860.35	-0.140431	-0.195986	0	-2.77323e-05
1860.35	-0.141519	-0.195989	0	0.000105883
1860.35	-0.14255	-0.195991	0	6.77073e-05
1860.36	-0.1436	-0.195981	0	2.95314e-05
1860.36	-0.144745	-0.195981	0	0.000124971
1860.36	-0.145776	-0.195983	0	4.86194e-05
1860.37	-0.146864	-0.195982	0	2.95314e-05
1860.37	-0.147933	-0.195984	0	1.04435e-05
1860.37	-0.148983	-0.195981	0	4.86194e-05
1860.38	-0.150014	-0.195983	0	-2.77323e-05
1860.38	-0.151045	-0.195985	0	1.04435e-05
1860.39	-0.152209	-0.195986	0	-4.68203e-05
1860.39	-0.153221	-0.195981	0	1.04435e-05
1860.4	-0.154252	-0.195988	0	6.77073e-05
1860.41	-0.155264	-0.195984	0	0.000163147
1860.41	-0.156276	-0.195988	0	-4.68203e-05
1860.45	-0.155207	-0.195983	0	1.04435e-05
1860.46	-0.154157	-0.195983	0	-4.68203e-05
1860.46	-0.153088	-0.195981	0	0.000124971
1860.46	-0.152076	-0.195975	0	-6.59082e-05
1860.47	-0.150988	-0.195984	0	-2.77323e-05
1860.47	-0.149919	-0.195984	0	-6.59082e-05
1860.47	-0.148888	-0.195986	0	6.77073e-05
1860.47	-0.147685	-0.195984	0	-8.64441e-06
1860.48	-0.146559	-0.195986	0	0.000124971
1860.48	-0.14549	-0.195984	0	6.77073e-05
1860.48	-0.144459	-0.195986	0	-4.68203e-05
1860.48	-0.14339	-0.195981	0	2.95314e-05
1860.49	-0.142283	-0.195979	0	-8.49961e-05
1860.49	-0.141214	-0.195981	0	0.000105883
1860.49	-0.139934	-0.195984	0	1.04435e-05
1860.49	-0.138885	-0.195988	0	-6.59082e-05
1860.49	-0.13772	-0.195984	0	8.67952e-05
1860.5	-0.136651	-0.195977	0	6.77073e-05
1860.5	-0.135467	-0.195982	0	6.77073e-05
1860.5	-0.134437	-0.195982	0	0.000105883
1860.5	-0.133329	-0.195981	0	6.77073e-05
1860.5	-0.132318	-0.195989	0	4.86194e-05
1860.51	-0.131172	-0.195985	0	-0.000123172
1860.51	-0.129969	-0.195982	0	0.000124971
1860.51	-0.128748	-0.195988	0	0.000105883
1860.51	-0.127545	-0.195986	0	0.000144059
1860.51	-0.126438	-0.195979	0	0.000105883
1860.52	-0.125311	-0.195982	0	8.67952e-05
1860.52	-0.124204	-0.195982	0	-4.68203e-05
1860.52	-0.123135	-0.195986	0	2.95314e-05
1860.52	-0.121875	-0.195984	0	2.95314e-05
1860.53	-0.120806	-0.195982	0	0.000124971
1860.53	-0.119756	-0.195981	0	-8.64441e-06
1860.53	-0.118725	-0.195987	0	6.77073e-05
1860.53	-0.117714	-0.195982	0	-2.77323e-05
1860.53	-0.116625	-0.195979	0	2.95314e-05
1860.54	-0.115575	-0.195979	0	0.000105883
1860.54	-0.114526	-0.195982	0	2.95314e-05
1860.54	-0.113342	-0.195986	0	6.77073e-05
1860.54	-0.112292	-0.195977	0	2.95314e-05
1860.55	-0.111261	-0.195979	0	0.000144059
1860.55	-0.110154	-0.195989	0	2.95314e-05
1860.55	-0.109104	-0.195988	0	6.77073e-05
1860.55	-0.108073	-0.195981	0	4.86194e-05
1860.56	-0.107061	-0.195987	0	8.67952e-05
1860.56	-0.105973	-0.195984	0	8.67952e-05
1860.56	-0.104961	-0.195979	0	-8.64441e-06
1860.57	-0.103873	-0.195986	0	8.67952e-05
1860.57	-0.102766	-0.195982	0	8.67952e-05
1860.57	-0.101697	-0.195988	0	-8.49961e-05
1860.57	-0.10059	-0.195986	0	1.04435e-05
1860.58	-0.099578	-0.195982	0	-8.64441e-06
1860.58	-0.0985471	-0.195984	0	6.77073e-05
1860.59	-0.097459	-0.195983	0	-0.000161348
1860.59	-0.0964281	-0.195985	0	2.95314e-05
1860.59	-0.09534	-0.195984	0	6.77073e-05
1860.6	-0.0943282	-0.195981	0	6.77073e-05
1860.6	-0.0933164	-0.195988	0	0.000144059
1860.61	-0.0922474	-0.195981	0	-8.64441e-06
1860.61	-0.0912165	-0.195988	0	2.95314e-05
1860.62	-0.0901093	-0.195986	0	-4.68203e-05
1860.62	-0.0890975	-0.195982	0	-6.59082e-05
1860.63	-0.0880284	-0.19598	0	-2.77323e-05
1860.64	-0.0869785	-0.195982	0	1.04435e-05
1860.64	-0.0859476	-0.195983	0	-2.77323e-05
1860.65	-0.0848977	-0.195981	0	8.67952e-05
1860.66	-0.0838477	-0.195982	0	4.86194e-05
1860.67	-0.0828168	-0.195977	0	4.86194e-05
1860.68	-0.0817478	-0.195983	0	-4.68203e-05
1860.69	-0.080736	-0.195985	0	-8.49961e-05
1860.7	-0.0796479	-0.195981	0	-0.00014226
1860.72	-0.0786361	-0.195984	0	2.95314e-05
1860.74	-0.0776052	-0.195988	0	-2.77323e-05
1860.75	-0.0765744	-0.195979	0	0.000105883
1860.78	-0.0754289	-0.195987	0	0.000124971
1860.81	-0.074379	-0.195983	0	2.95314e-05
1860.84	-0.0733672	-0.195984	0	8.67952e-05
1860.88	-0.0723554	-0.195988	0	0.000124971
1860.93	-0.0713055	-0.195984	0	-4.68203e-05
1860.99	-0.0702555	-0.195981	0	1.04435e-05
1861.08	-0.0692438	-0.195986	0	-6.59082e-05
1861.21	-0.068232	-0.195983	0	-8.49961e-05
1861.42	-0.0672202	-0.195987	0	-6.59082e-05
1862	-0.0662084	-0.195981	0	2.95314e-05
1863.62	-0.0672393	-0.195981	0	6.77073e-05
1864.96	-0.0682702	-0.195988	0	0.000201323
1866.17	-0.069301	-0.195981	0	0.000105883
1867.41	-0.0703128	-0.195986	0	-8.49961e-05
1868.74	-0.0713628	-0.195982	0	4.86194e-05
1870.23	-0.0723745	-0.195976	0	-4.68203e-05
1871.73	-0.0734245	-0.195984	0	8.67952e-05
1873.5	-0.0744363	-0.195983	0	6.77073e-05
1875.31	-0.0754671	-0.195984	0	1.04435e-05
1877.49	-0.0764789	-0.195979	0	0.000124971
1879.64	-0.0774907	-0.195986	0	-8.64441e-06
1882.29	-0.0785025	-0.195982	0	4.86194e-05
1885.38	-0.0795142	-0.195986	0	-2.77323e-05
1889.06	-0.080526	-0.19598	0	0.000124971
1893.36	-0.0815569	-0.195991	0	0.000105883
1896.21	-0.0819578	-0.195986	0	-8.64441e-06