File: EXPERIMENTAL/DATA/Electrochemical-cycling/S-series/2024-07-04_S26_Icell_t1800_C0010_J01_deltaX-109,8mm_12mmLi_02_MB_C02.txt
time/s	Ewe/V	I/mA	error	Ece/V
60.053	2.99035	-0.0250311	0	-0.000581471
60.1732	0.00947956	-23.8972	0	9.62671e-05
60.1736	0.00940321	-23.838	0	-3.7334e-05
60.174	0.00936503	-23.7814	0	5.80953e-05
60.1744	0.00946047	-23.7229	0	1.99236e-05
60.1748	0.00940321	-23.6599	0	5.80953e-05
60.1754	0.00940321	-23.5816	0	0.000153525
60.1758	0.00930776	-23.5224	0	-1.82481e-05
60.1762	0.00936503	-23.4721	0	8.37723e-07
60.1766	0.00946047	-23.4142	0	-1.82481e-05
60.177	0.00949865	-23.362	0	7.71812e-05
60.1774	0.00944138	-23.3105	0	8.37723e-07
60.1778	0.00932685	-23.2507	0	8.37723e-07
60.1782	0.00942229	-23.1991	0	-1.82481e-05
60.1788	0.00938412	-23.1215	0	-1.82481e-05
60.1792	0.00940321	-23.0674	0	5.80953e-05
60.1798	0.00947956	-22.9955	0	-7.55058e-05
60.1804	0.00942229	-22.9204	0	9.62671e-05
60.181	0.00944138	-22.8415	0	-5.64199e-05
60.1816	0.00926959	-22.7715	0	3.90095e-05
60.1822	0.00942229	-22.6983	0	-3.7334e-05
60.1828	0.00938412	-22.627	0	8.37723e-07
60.1834	0.00934594	-22.557	0	5.80953e-05
60.184	0.00938412	-22.4857	0	-1.82481e-05
60.1846	0.00936503	-22.4176	0	-5.64199e-05
60.1852	0.00928868	-22.3502	0	-1.82481e-05
60.1858	0.00938412	-22.2834	0	-0.000132763
60.1864	0.00934594	-22.2172	0	-1.82481e-05
60.187	0.00946047	-22.1618	0	-3.7334e-05
60.1876	0.00934594	-22.088	0	3.90095e-05
60.1882	0.00940321	-22.0237	0	-3.7334e-05
60.1888	0.00940321	-21.962	0	-7.55058e-05
60.1894	0.00951773	-21.906	0	3.90095e-05
60.19	0.00942229	-21.8449	0	-3.7334e-05
60.1906	0.00932685	-21.7838	0	-3.7334e-05
60.1912	0.00934594	-21.7221	0	3.90095e-05
60.192	0.00934594	-21.6444	0	8.37723e-07
60.1926	0.00938412	-21.5859	0	0.000210782
60.1932	0.00936503	-21.5299	0	-7.55058e-05
60.1938	0.00934594	-21.4694	0	-1.82481e-05
60.1944	0.00940321	-21.416	0	-1.82481e-05
60.195	0.00934594	-21.3638	0	0.000172611
60.1958	0.00940321	-21.2855	0	-3.7334e-05
60.1964	0.00947956	-21.2295	0	-5.64199e-05
60.197	0.00934594	-21.1767	0	8.37723e-07
60.1976	0.00951773	-21.1264	0	-3.7334e-05
60.1982	0.00940321	-21.0742	0	-1.82481e-05
60.1988	0.00928868	-21.017	0	8.37723e-07
60.1996	0.00934594	-20.9591	0	1.99236e-05
60.2002	0.00942229	-20.8941	0	3.90095e-05
60.201	0.00934594	-20.8318	0	8.37723e-07
60.2016	0.00938412	-20.7758	0	8.37723e-07
60.2024	0.00953682	-20.7166	0	-5.64199e-05
60.2032	0.00942229	-20.6517	0	9.62671e-05
60.204	0.00940321	-20.588	0	5.80953e-05
60.2048	0.00944138	-20.5257	0	8.37723e-07
60.2056	0.00942229	-20.4671	0	3.90095e-05
60.2062	0.00928868	-20.4162	0	3.90095e-05
60.207	0.00942229	-20.3647	0	3.90095e-05
60.2076	0.00930776	-20.308	0	-1.82481e-05
60.2084	0.00947956	-20.2501	0	0.000134439
60.2092	0.00947956	-20.1852	0	-1.82481e-05
60.2102	0.00940321	-20.1158	0	-1.82481e-05
60.211	0.00940321	-20.0656	0	9.62671e-05
60.2116	0.00938412	-20.0153	0	-7.55058e-05
60.2124	0.00930776	-19.9638	0	3.90095e-05
60.2132	0.00946047	-19.9039	0	-1.82481e-05
60.214	0.00942229	-19.8435	0	-3.7334e-05
60.215	0.00932685	-19.776	0	0.000134439
60.216	0.00940321	-19.7137	0	5.80953e-05
60.2168	0.00932685	-19.6615	0	-3.7334e-05
60.2176	0.00942229	-19.6061	0	-1.82481e-05
60.2184	0.00932685	-19.5552	0	9.62671e-05
60.2192	0.00949865	-19.4998	0	7.71812e-05
60.2202	0.00936503	-19.4375	0	-3.7334e-05
60.221	0.00944138	-19.3827	0	-7.55058e-05
60.2218	0.00951773	-19.3318	0	8.37723e-07
60.2226	0.00942229	-19.2803	0	-3.7334e-05
60.2238	0.00938412	-19.2084	0	0.000115353
60.2246	0.00938412	-19.1562	0	5.80953e-05
60.2256	0.00928868	-19.0945	0	1.99236e-05
60.2266	0.00942229	-19.034	0	0.000115353
60.2276	0.00934594	-18.9742	0	8.37723e-07
60.2286	0.00938412	-18.9169	0	8.37723e-07
60.2294	0.00947956	-18.8666	0	0.000134439
60.2304	0.00946047	-18.8068	0	8.37723e-07
60.2316	0.00953682	-18.7343	0	-0.000113677
60.2326	0.00938412	-18.6789	0	3.90095e-05
60.2336	0.00946047	-18.6165	0	1.99236e-05
60.2348	0.00938412	-18.5573	0	-7.55058e-05
60.2358	0.00942229	-18.502	0	7.71812e-05
60.2366	0.00946047	-18.4517	0	8.37723e-07
60.2378	0.00942229	-18.3963	0	-3.7334e-05
60.2388	0.00940321	-18.3372	0	-5.64199e-05
60.2398	0.00940321	-18.2812	0	-3.7334e-05
60.2408	0.00938412	-18.2283	0	7.71812e-05
60.2418	0.00938412	-18.1768	0	3.90095e-05
60.2428	0.00934594	-18.1195	0	5.80953e-05
60.2438	0.00938412	-18.068	0	-7.55058e-05
60.2448	0.00940321	-18.0158	0	-5.64199e-05
60.2458	0.00949865	-17.9611	0	1.99236e-05
60.247	0.00932685	-17.9031	0	-3.7334e-05
60.2482	0.00938412	-17.844	0	-9.45916e-05
60.2492	0.00942229	-17.7899	0	5.80953e-05
60.2504	0.00942229	-17.7396	0	3.90095e-05
60.2514	0.00938412	-17.6836	0	1.99236e-05
60.2524	0.00944138	-17.6308	0	3.90095e-05
60.2536	0.00932685	-17.5741	0	1.99236e-05
60.2548	0.00940321	-17.5162	0	-9.45916e-05
60.256	0.00938412	-17.452	0	-9.45916e-05
60.2572	0.00934594	-17.394	0	-3.7334e-05
60.2584	0.00953682	-17.3361	0	-7.55058e-05
60.2598	0.00938412	-17.2827	0	-9.45916e-05
60.2608	0.00946047	-17.226	0	3.90095e-05
60.2622	0.00934594	-17.1662	0	-3.7334e-05
60.2632	0.00938412	-17.1115	0	-3.7334e-05
60.2646	0.00951773	-17.051	0	5.80953e-05
60.2656	0.00936503	-17.0001	0	-9.45916e-05
60.267	0.00942229	-16.9454	0	8.37723e-07
60.2682	0.00946047	-16.8932	0	-1.82481e-05
60.2694	0.00940321	-16.8398	0	3.90095e-05
60.2706	0.00940321	-16.7774	0	-0.000132763
60.272	0.00946047	-16.7265	0	3.90095e-05
60.273	0.00940321	-16.673	0	1.99236e-05
60.2744	0.00942229	-16.617	0	5.80953e-05
60.276	0.00946047	-16.5559	0	9.62671e-05
60.2774	0.00944138	-16.4987	0	-9.45916e-05
60.2786	0.00930776	-16.4433	0	7.71812e-05
60.2798	0.00942229	-16.3898	0	1.99236e-05
60.2812	0.00955591	-16.3332	0	-3.7334e-05
60.2824	0.00949865	-16.281	0	8.37723e-07
60.2838	0.00946047	-16.2269	0	-0.000113677
60.2852	0.00936503	-16.1735	0	3.90095e-05
60.2864	0.00932685	-16.1226	0	-0.000151849
60.288	0.00932685	-16.0551	0	0.000134439
60.2896	0.00940321	-15.9997	0	-1.82481e-05
60.2908	0.00946047	-15.9482	0	8.37723e-07
60.2924	0.00942229	-15.8845	0	-3.7334e-05
60.2938	0.00938412	-15.8305	0	3.90095e-05
60.2952	0.00942229	-15.7732	0	1.99236e-05
60.2968	0.00947956	-15.7134	0	-1.82481e-05
60.2984	0.00942229	-15.6548	0	1.99236e-05
60.2998	0.00946047	-15.6007	0	8.37723e-07
60.3012	0.00936503	-15.5504	0	-1.82481e-05
60.3028	0.00940321	-15.4894	0	5.80953e-05
60.3044	0.00946047	-15.4334	0	1.99236e-05
60.306	0.00938412	-15.3754	0	8.37723e-07
60.3076	0.00930776	-15.3143	0	7.71812e-05
60.309	0.00938412	-15.2615	0	7.71812e-05
60.311	0.00940321	-15.2011	0	-3.7334e-05
60.3124	0.00938412	-15.1483	0	0.000115353
60.314	0.00938412	-15.0884	0	-3.7334e-05
60.3156	0.00944138	-15.0382	0	0.000115353
60.3172	0.00944138	-14.9815	0	1.99236e-05
60.319	0.00938412	-14.916	0	8.37723e-07
60.3208	0.00940321	-14.8612	0	-9.45916e-05
60.3224	0.00940321	-14.8084	0	-1.82481e-05
60.3238	0.00944138	-14.7575	0	5.80953e-05
60.3254	0.00949865	-14.706	0	-1.82481e-05
60.3266	0.00949865	-14.6538	0	7.71812e-05
60.3284	0.00944138	-14.6035	0	-3.7334e-05
60.3302	0.00947956	-14.5443	0	9.62671e-05
60.332	0.00944138	-14.489	0	8.37723e-07
60.3338	0.00940321	-14.4361	0	-5.64199e-05
60.3354	0.00938412	-14.3852	0	5.80953e-05
60.337	0.00949865	-14.333	0	3.90095e-05
60.3388	0.00946047	-14.2739	0	3.90095e-05
60.3406	0.00944138	-14.2236	0	-5.64199e-05
60.3422	0.00940321	-14.1657	0	5.80953e-05
60.3442	0.00940321	-14.1154	0	8.37723e-07
60.3456	0.00938412	-14.0626	0	1.99236e-05
60.3476	0.00940321	-14.0066	0	-7.55058e-05
60.3494	0.00932685	-13.9563	0	3.90095e-05
60.3514	0.00934594	-13.8946	0	8.37723e-07
60.3532	0.00934594	-13.8424	0	1.99236e-05
60.3552	0.00932685	-13.7845	0	1.99236e-05
60.357	0.00946047	-13.7342	0	-5.64199e-05
60.3588	0.00938412	-13.6795	0	-1.82481e-05
60.3606	0.00936503	-13.6292	0	7.71812e-05
60.3626	0.00944138	-13.57	0	0.000134439
60.3646	0.00938412	-13.5153	0	9.62671e-05
60.367	0.00934594	-13.4504	0	7.71812e-05
60.3688	0.00940321	-13.3976	0	-1.82481e-05
60.3708	0.00953682	-13.3422	0	0.000153525
60.373	0.00934594	-13.2849	0	-1.82481e-05
60.3752	0.00936503	-13.2327	0	1.99236e-05
60.3768	0.00936503	-13.1812	0	-1.82481e-05
60.3792	0.00938412	-13.1265	0	-7.55058e-05
60.3812	0.00946047	-13.0711	0	-3.7334e-05
60.3832	0.00934594	-13.0208	0	8.37723e-07
60.3852	0.00947956	-12.9629	0	1.99236e-05
60.3876	0.00944138	-12.9076	0	-5.64199e-05
60.3894	0.00946047	-12.8573	0	1.99236e-05
60.3918	0.00944138	-12.8	0	1.99236e-05
60.394	0.00940321	-12.7434	0	8.37723e-07
60.3962	0.00946047	-12.6912	0	8.37723e-07
60.398	0.00946047	-12.6396	0	3.90095e-05
60.4008	0.00942229	-12.576	0	-1.82481e-05
60.4032	0.00932685	-12.5181	0	9.62671e-05
60.4056	0.00947956	-12.4634	0	5.80953e-05
60.4076	0.00938412	-12.4118	0	9.62671e-05
60.41	0.00928868	-12.3545	0	5.80953e-05
60.4124	0.00932685	-12.3036	0	0.000153525
60.4144	0.00947956	-12.2534	0	0.000153525
60.4168	0.00938412	-12.2005	0	8.37723e-07
60.419	0.00942229	-12.1484	0	-5.64199e-05
60.4214	0.00940321	-12.0962	0	8.37723e-07
60.4234	0.00934594	-12.0459	0	-1.82481e-05
60.4258	0.00940321	-11.9918	0	-5.64199e-05
60.428	0.00936503	-11.9371	0	-1.82481e-05
60.4306	0.00946047	-11.8855	0	3.90095e-05
60.4328	0.00942229	-11.8353	0	-5.64199e-05
60.4354	0.00938412	-11.7812	0	-1.82481e-05
60.438	0.00938412	-11.7226	0	5.80953e-05
60.4404	0.00942229	-11.6723	0	1.99236e-05
60.443	0.00934594	-11.6163	0	7.71812e-05
60.4454	0.00947956	-11.5661	0	8.37723e-07
60.4478	0.00936503	-11.5158	0	7.71812e-05
60.4504	0.00955591	-11.4636	0	-0.000113677
60.4528	0.00934594	-11.4114	0	3.90095e-05
60.4552	0.00944138	-11.3611	0	3.90095e-05
60.458	0.00934594	-11.3083	0	8.37723e-07
60.4604	0.00946047	-11.2568	0	1.99236e-05
60.463	0.00940321	-11.2046	0	7.71812e-05
60.4656	0.00942229	-11.1518	0	1.99236e-05
60.4682	0.00946047	-11.0958	0	1.99236e-05
60.471	0.00947956	-11.0417	0	0.000115353
60.4738	0.00936503	-10.9863	0	-1.82481e-05
60.4768	0.00934594	-10.931	0	3.90095e-05
60.4794	0.00930776	-10.88	0	-3.7334e-05
60.482	0.00932685	-10.8279	0	-5.64199e-05
60.485	0.00944138	-10.7719	0	8.37723e-07
60.4878	0.00936503	-10.7197	0	3.90095e-05
60.4906	0.00940321	-10.6688	0	3.90095e-05
60.4934	0.00946047	-10.6185	0	8.37723e-07
60.4962	0.00938412	-10.5682	0	7.71812e-05
60.4986	0.00936503	-10.5141	0	7.71812e-05
60.5018	0.00940321	-10.4632	0	-5.64199e-05
60.5048	0.00932685	-10.4066	0	5.80953e-05
60.5078	0.00955591	-10.3538	0	0.000134439
60.5108	0.00938412	-10.3035	0	8.37723e-07
60.5134	0.00932685	-10.2494	0	8.37723e-07
60.5168	0.00942229	-10.1972	0	5.80953e-05
60.5198	0.00938412	-10.1469	0	5.80953e-05
60.5228	0.00934594	-10.0858	0	-3.7334e-05
60.5264	0.00946047	-10.0343	0	7.71812e-05
60.5294	0.00946047	-9.98211	0	-9.45916e-05
60.532	0.00932685	-9.93056	0	3.90095e-05
60.5352	0.00942229	-9.87901	0	7.71812e-05
60.5384	0.00932685	-9.82556	0	7.71812e-05
60.5418	0.00940321	-9.76956	0	-7.55058e-05
60.545	0.00940321	-9.71928	0	5.80953e-05
60.5484	0.0092505	-9.66264	0	0.000115353
60.552	0.00930776	-9.6111	0	5.80953e-05
60.5554	0.00949865	-9.55319	0	-3.7334e-05
60.5586	0.00942229	-9.50164	0	0.000134439
60.5622	0.00932685	-9.44882	0	8.37723e-07
60.5656	0.00940321	-9.39727	0	-5.64199e-05
60.5688	0.00938412	-9.34445	0	1.99236e-05
60.5724	0.00932685	-9.29036	0	8.37723e-07
60.576	0.00938412	-9.23754	0	3.90095e-05
60.5794	0.00944138	-9.18472	0	-9.45916e-05
60.5828	0.00938412	-9.13318	0	-3.7334e-05
60.5868	0.00940321	-9.0759	0	7.71812e-05
60.5902	0.00930776	-9.02181	0	1.99236e-05
60.5942	0.00942229	-8.9639	0	5.80953e-05
60.5982	0.00930776	-8.91171	0	3.90095e-05
60.6018	0.00930776	-8.8608	0	7.71812e-05
60.6056	0.00938412	-8.80862	0	8.37723e-07
60.6096	0.00942229	-8.75326	0	8.37723e-07
60.6132	0.00942229	-8.70044	0	-5.64199e-05
60.6172	0.00932685	-8.64953	0	5.80953e-05
60.6208	0.00936503	-8.59607	0	-7.55058e-05
60.6252	0.00936503	-8.54261	0	3.90095e-05
60.6292	0.00942229	-8.48979	0	-9.45916e-05
60.6332	0.00934594	-8.4357	0	3.90095e-05
60.6374	0.00940321	-8.38288	0	-5.64199e-05
60.6414	0.00947956	-8.33261	0	-1.82481e-05
60.6462	0.00940321	-8.2747	0	1.99236e-05
60.6506	0.00928868	-8.22188	0	0.000153525
60.654	0.00940321	-8.17097	0	1.99236e-05
60.6592	0.00936503	-8.1156	0	3.90095e-05
60.6636	0.00947956	-8.05896	0	-1.82481e-05
60.6678	0.00946047	-8.00805	0	0.000134439
60.6728	0.00949865	-7.95778	0	7.71812e-05
60.6766	0.00938412	-7.9075	0	-1.82481e-05
60.6818	0.00946047	-7.85468	0	0.000115353
60.686	0.00938412	-7.80377	0	3.90095e-05
60.6912	0.00936503	-7.75032	0	0.000115353
60.6956	0.00936503	-7.69686	0	-5.64199e-05
60.701	0.00942229	-7.64086	0	-0.000132763
60.7064	0.00932685	-7.5874	0	-0.000132763
60.7112	0.00942229	-7.53331	0	3.90095e-05
60.717	0.00936503	-7.47922	0	-3.7334e-05
60.722	0.00936503	-7.4264	0	-1.82481e-05
60.7274	0.00942229	-7.37613	0	-5.64199e-05
60.7328	0.00936503	-7.32521	0	-3.7334e-05
60.7382	0.00940321	-7.27303	0	9.62671e-05
60.7442	0.00942229	-7.21767	0	3.90095e-05
60.7494	0.00947956	-7.16357	0	1.99236e-05
60.7554	0.00938412	-7.1133	0	7.71812e-05
60.7608	0.00940321	-7.06112	0	-9.45916e-05
60.7674	0.00936503	-7.00893	0	-1.82481e-05
60.773	0.00938412	-6.9523	0	-3.7334e-05
60.7802	0.00930776	-6.8982	0	7.71812e-05
60.7866	0.00944138	-6.84602	0	3.90095e-05
60.793	0.00947956	-6.79575	0	8.37723e-07
60.7992	0.00940321	-6.74293	0	8.37723e-07
60.8066	0.00934594	-6.68756	0	8.37723e-07
60.814	0.00946047	-6.63729	0	-3.7334e-05
60.8204	0.00926959	-6.58574	0	-1.82481e-05
60.827	0.00936503	-6.53547	0	3.90095e-05
60.8344	0.00942229	-6.48265	0	-1.82481e-05
60.8416	0.00944138	-6.43237	0	-0.000151849
60.8496	0.00932685	-6.37828	0	-5.64199e-05
60.8572	0.00928868	-6.32737	0	8.37723e-07
60.8658	0.00940321	-6.272	0	0.000115353
60.8734	0.00942229	-6.22173	0	8.37723e-07
60.8814	0.00946047	-6.17082	0	-3.7334e-05
60.8906	0.00940321	-6.11991	0	1.99236e-05
60.899	0.00928868	-6.06391	0	1.99236e-05
60.9086	0.00934594	-6.01172	0	8.37723e-07
60.917	0.00944138	-5.96145	0	-5.64199e-05
60.9266	0.00944138	-5.90863	0	0.000191696
60.9362	0.00949865	-5.85708	0	1.99236e-05
60.947	0.00938412	-5.80172	0	5.80953e-05
60.9568	0.00946047	-5.75017	0	1.99236e-05
60.9668	0.00928868	-5.69862	0	-7.55058e-05
60.9772	0.00940321	-5.64644	0	9.62671e-05
60.9878	0.00936503	-5.59426	0	-3.7334e-05
60.999	0.00944138	-5.54271	0	1.99236e-05
61.0096	0.0092505	-5.48989	0	-1.82481e-05
61.0234	0.00944138	-5.43262	0	9.62671e-05
61.036	0.00944138	-5.38171	0	5.80953e-05
61.048	0.00942229	-5.33016	0	1.99236e-05
61.0594	0.00936503	-5.27988	0	0.000153525
61.0722	0.00942229	-5.22961	0	1.99236e-05
61.0864	0.00946047	-5.17934	0	9.62671e-05
61.099	0.00934594	-5.12843	0	-5.64199e-05
61.112	0.00923141	-5.07433	0	0.000115353
61.1272	0.00938412	-5.02406	0	7.71812e-05
61.1418	0.00936503	-4.97315	0	3.90095e-05
61.1564	0.00940321	-4.91842	0	9.62671e-05
61.1726	0.00951773	-4.86687	0	3.90095e-05
61.1866	0.00949865	-4.81596	0	0.000153525
61.2026	0.00946047	-4.76569	0	-7.55058e-05
61.2182	0.00942229	-4.71223	0	5.80953e-05
61.236	0.00944138	-4.66132	0	7.71812e-05
61.2524	0.00936503	-4.61041	0	-5.64199e-05
61.2702	0.00936503	-4.55696	0	8.37723e-07
61.2882	0.00944138	-4.5035	0	-5.64199e-05
61.3072	0.00932685	-4.45322	0	3.90095e-05
61.3236	0.00946047	-4.40295	0	5.80953e-05
61.343	0.00953682	-4.35013	0	0.000153525
61.361	0.00940321	-4.29922	0	9.62671e-05
61.4054	0.00932685	-4.20633	0	-1.82481e-05
61.4244	0.00930776	-4.15613	0	-1.82481e-05
61.444	0.00940321	-4.10612	0	7.71812e-05
61.464	0.00934594	-4.05579	0	8.37723e-07
61.4846	0.00936503	-4.00547	0	-3.7334e-05
61.5052	0.00942229	-3.95514	0	0.000115353
61.5262	0.00932685	-3.905	0	-1.82481e-05
61.5476	0.00944138	-3.85468	0	-1.82481e-05
61.569	0.00936503	-3.80435	0	5.80953e-05
61.591	0.009575	-3.75421	0	8.37723e-07
61.6134	0.00944138	-3.70363	0	-0.000170935
61.6362	0.00938412	-3.65349	0	5.80953e-05
61.6596	0.00940321	-3.60279	0	3.90095e-05
61.6834	0.00942229	-3.55208	0	-3.7334e-05
61.7072	0.00942229	-3.50207	0	0.000134439
61.7316	0.00951773	-3.45206	0	0.000153525
61.7564	0.00942229	-3.40199	0	3.90095e-05
61.7814	0.00942229	-3.35147	0	0.000115353
61.8074	0.00944138	-3.30089	0	-5.64199e-05
61.8338	0.00940321	-3.25043	0	-3.7334e-05
61.8608	0.00944138	-3.19934	0	8.37723e-07
61.889	0.00932685	-3.14914	0	0.000115353
61.917	0.00934594	-3.09862	0	1.99236e-05
61.9458	0.00938412	-3.04862	0	0.000153525
61.975	0.00930776	-2.99816	0	3.90095e-05
62.0052	0.00932685	-2.94815	0	7.71812e-05
62.0364	0.00936503	-2.89751	0	-1.82481e-05
62.0686	0.00940321	-2.84635	0	1.99236e-05
62.1016	0.00936503	-2.79634	0	1.99236e-05
62.136	0.00930776	-2.74614	0	5.80953e-05
62.1706	0.00940321	-2.69601	0	8.37723e-07
62.2068	0.00932685	-2.64587	0	8.37723e-07
62.2438	0.00940321	-2.59516	0	-5.64199e-05
62.283	0.00946047	-2.54496	0	-3.7334e-05
62.3226	0.00938412	-2.49496	0	1.99236e-05
62.3648	0.00928868	-2.44469	0	-3.7334e-05
62.4082	0.00936503	-2.39456	0	-3.7334e-05
62.4532	0.00942229	-2.34429	0	-9.45916e-05
62.5004	0.00940321	-2.2939	0	7.71812e-05
62.5494	0.00934594	-2.24326	0	0.000115353
62.6012	0.00942229	-2.19293	0	8.37723e-07
62.6554	0.00936503	-2.14292	0	5.80953e-05
62.7114	0.00944138	-2.09259	0	3.90095e-05
62.7704	0.00946047	-2.04214	0	-1.82481e-05
62.834	0.00936503	-1.99168	0	-3.7334e-05
62.9004	0.00932685	-1.94142	0	-1.82481e-05
62.9708	0.00940321	-1.89129	0	8.37723e-07
63.0426	0.00932685	-1.84128	0	-1.82481e-05
63.1228	0.00930776	-1.79044	0	8.37723e-07
63.2066	0.00946047	-1.74037	0	5.80953e-05
63.2966	0.00947956	-1.69023	0	3.90095e-05
63.3926	0.00938412	-1.64016	0	8.37723e-07
63.4944	0.00934594	-1.58983	0	1.99236e-05
63.6058	0.00923141	-1.53976	0	0.000134439
63.723	0.00938412	-1.48918	0	-9.45916e-05
63.851	0.00946047	-1.43904	0	-7.55058e-05
63.989	0.00930776	-1.38891	0	3.90095e-05
64.1386	0.00940321	-1.3389	0	-1.82481e-05
64.3008	0.00940321	-1.28851	0	9.62671e-05
64.4802	0.00938412	-1.23837	0	0.000115353
64.6744	0.00919323	-1.18836	0	3.90095e-05
64.8852	0.00940321	-1.13835	0	0.000134439
65.1242	0.00928868	-1.08796	0	5.80953e-05
65.3854	0.00934594	-1.03776	0	3.90095e-05
65.6724	0.00942229	-0.987754	0	9.62671e-05
65.9956	0.00932685	-0.937236	0	7.71812e-05
66.3594	0.00930776	-0.887036	0	0.000134439
66.7654	0.00936503	-0.837027	0	-3.7334e-05
67.2264	0.00946047	-0.786891	0	9.62671e-05
67.75	0.00934594	-0.736882	0	1.99236e-05
68.3526	0.00942229	-0.68611	0	3.90095e-05
69.07	0.00953682	-0.635846	0	1.99236e-05
69.909	0.00936503	-0.585646	0	5.80953e-05
70.9134	0.00946047	-0.535574	0	5.80953e-05
72.1334	0.00934594	-0.485183	0	1.99236e-05
73.7564	0.00942229	-0.435148	0	8.37723e-07
75.719	0.00934594	-0.385146	0	1.99236e-05
78.2902	0.00946047	-0.335074	0	-1.82481e-05
81.8356	0.00940321	-0.28504	0	-3.7334e-05
87.0408	0.00934594	-0.23498	0	1.99236e-05
95.413	0.00940321	-0.184774	0	0.000115353
105.413	0.00936503	-0.149133	0	0.000134439
115.413	0.00930776	-0.125007	0	3.90095e-05
125.413	0.00928868	-0.108202	0	-3.7334e-05
135.413	0.00946047	-0.0950694	0	7.71812e-05
145.413	0.00934594	-0.0847252	0	9.62671e-05
155.413	0.00938412	-0.0760233	0	7.71812e-05
165.413	0.00944138	-0.0688938	0	0.000115353
175.413	0.00932685	-0.0625791	0	0.000153525
185.413	0.00936503	-0.0572828	0	8.37723e-07
195.413	0.00932685	-0.0528269	0	-1.82481e-05
205.413	0.00928868	-0.0485619	0	5.80953e-05
215.413	0.00946047	-0.0454682	0	1.99236e-05
225.413	0.00930776	-0.0421532	0	5.80953e-05
235.413	0.00938412	-0.0391739	0	7.71812e-05
245.413	0.00936503	-0.0364243	0	-9.45916e-05
255.413	0.00936503	-0.0340088	0	9.62671e-05
265.413	0.00946047	-0.0315901	0	0.000115353
275.413	0.00928868	-0.0296874	0	3.90095e-05
285.413	0.00932685	-0.0277771	0	-1.82481e-05
295.413	0.00942229	-0.0259986	0	7.71812e-05
305.413	0.00944138	-0.0245719	0	0.000134439
315.413	0.00932685	-0.0231841	0	7.71812e-05
325.413	0.00940321	-0.0220304	0	5.80953e-05
335.413	0.00928868	-0.0209518	0	0.000153525
345.413	0.00946047	-0.0199439	0	9.62671e-05
355.413	0.00928868	-0.0189836	0	5.80953e-05
365.413	0.00942229	-0.0179445	0	7.71812e-05
375.413	0.00934594	-0.0170708	0	-1.82481e-05
385.413	0.00932685	-0.0163384	0	0.000115353
395.413	0.00934594	-0.01566	0	9.62671e-05
405.413	0.00934594	-0.0149155	0	1.99236e-05
415.413	0.00940321	-0.0144186	0	1.99236e-05
425.413	0.00938412	-0.0139063	0	-5.64199e-05
435.413	0.00934594	-0.0132795	0	8.37723e-07
445.413	0.00947956	-0.0128519	0	9.62671e-05
455.413	0.00940321	-0.0122964	0	7.71812e-05
465.413	0.00940321	-0.0119044	0	-0.000132763
475.413	0.00938412	-0.0114717	0	1.99236e-05
485.413	0.00934594	-0.0110733	0	7.71812e-05
495.413	0.00940321	-0.0107914	0	9.62671e-05
505.413	0.00942229	-0.0105134	0	3.90095e-05
515.413	0.00932685	-0.0101468	0	1.99236e-05
525.413	0.00938412	-0.00981148	0	1.99236e-05
535.413	0.00938412	-0.0111548	0	-3.7334e-05
545.413	0.00940321	-0.00948441	0	8.37723e-07
555.413	0.00923141	-0.0091446	0	3.90095e-05
565.413	0.00940321	-0.00894607	0	1.99236e-05
575.413	0.00940321	-0.00862854	0	5.80953e-05
585.413	0.00926959	-0.00838036	0	0.000153525
595.413	0.00944138	-0.00816465	0	3.90095e-05
605.413	0.00936503	-0.00810801	0	1.99236e-05
615.413	0.00942229	-0.00787448	0	0.000172611
625.413	0.00936503	-0.00757158	0	0.000115353
635.413	0.00944138	-0.00744877	0	0.000153525
645.413	0.00938412	-0.00730559	0	8.37723e-07
655.413	0.00930776	-0.00718533	0	9.62671e-05
665.413	0.00940321	-0.00702497	0	8.37723e-07
675.413	0.00936503	-0.00688816	0	7.71812e-05
685.413	0.00936503	-0.00672398	0	8.37723e-07
695.413	0.00934594	-0.00663999	0	-5.64199e-05
705.413	0.00934594	-0.00644909	0	3.90095e-05
715.413	0.00928868	-0.00634473	0	9.62671e-05
725.413	0.00932685	-0.0061691	0	-7.55058e-05
735.413	0.00938412	-0.00617674	0	3.90095e-05
745.413	0.00942229	-0.00602911	0	0.000153525
755.413	0.00940321	-0.00581021	0	0.000115353
765.413	0.00940321	-0.00571857	0	9.62671e-05
775.413	0.00940321	-0.00565494	0	1.99236e-05
785.413	0.00930776	-0.00569376	0	9.62671e-05
795.413	0.00934594	-0.00534568	0	3.90095e-05
805.413	0.00932685	-0.00534377	0	-7.55058e-05
815.413	0.00936503	-0.00538832	0	0.000134439
825.413	0.00942229	-0.00522859	0	0.000115353
835.413	0.00938412	-0.00513442	0	1.99236e-05
845.413	0.00934594	-0.00509751	0	5.80953e-05
855.413	0.00940321	-0.00492188	0	8.37723e-07
865.413	0.00930776	-0.00499315	0	0.000115353
875.413	0.00938412	-0.00485507	0	0.000115353
885.413	0.00942229	-0.00476916	0	1.99236e-05
895.413	0.00942229	-0.00468516	0	-1.82481e-05
905.413	0.00936503	-0.00496006	0	-3.7334e-05
915.413	0.00934594	-0.00463235	0	7.71812e-05
925.413	0.00936503	-0.00460817	0	7.71812e-05
935.413	0.00938412	-0.00448432	0	1.99236e-05
945.413	0.00928868	-0.00444873	0	-9.45916e-05
955.413	0.00934594	-0.00439842	0	8.37723e-07
965.413	0.00942229	-0.00432297	0	-5.64199e-05
975.413	0.00936503	-0.00422993	0	3.90095e-05
985.413	0.00932685	-0.00418562	0	1.99236e-05
995.413	0.00947956	-0.00415371	0	9.62671e-05
1005.41	0.00936503	-0.00409494	0	3.90095e-05
1015.41	0.00932685	-0.00405355	0	7.71812e-05
1025.41	0.00942229	-0.00403789	0	5.80953e-05
1035.41	0.00936503	-0.00395301	0	5.80953e-05
1045.41	0.00936503	-0.00392715	0	3.90095e-05
1055.41	0.00934594	-0.00386978	0	-7.55058e-05
1065.41	0.00934594	-0.00382139	0	5.80953e-05
1075.41	0.00940321	-0.00379821	0	1.99236e-05
1085.41	0.00932685	-0.00377382	0	7.71812e-05
1095.41	0.00940321	-0.00367538	0	5.80953e-05
1105.41	0.00946047	-0.0036643	0	7.71812e-05
1115.41	0.00926959	-0.0036536	0	9.62671e-05
1125.41	0.00936503	-0.0035919	0	7.71812e-05
1135.41	0.00940321	-0.00354401	0	-1.82481e-05
1145.41	0.00940321	-0.00351523	0	8.37723e-07
1155.41	0.00938412	-0.00347053	0	9.62671e-05
1165.41	0.0092505	-0.00346716	0	0.000153525
1175.41	0.00940321	-0.00340526	0	1.99236e-05
1185.41	0.00938412	-0.00341048	0	1.99236e-05
1195.41	0.00934594	-0.00334127	0	7.71812e-05
1205.41	0.00938412	-0.00329122	0	0.000210782
1215.41	0.00936503	-0.00327906	0	8.37723e-07
1225.41	0.00930776	-0.00326683	0	3.90095e-05
1235.41	0.00926959	-0.00325944	0	-1.82481e-05
1245.41	0.00928868	-0.00319418	0	7.71812e-05
1255.41	0.00932685	-0.00317584	0	9.62671e-05
1265.41	0.00930776	-0.00312763	0	7.71812e-05
1275.41	0.00938412	-0.00309185	0	7.71812e-05
1285.41	0.00942229	-0.00308886	0	0.000115353
1295.41	0.00944138	-0.00304231	0	3.90095e-05
1305.41	0.00936503	-0.0030481	0	3.90095e-05
1315.41	0.00942229	-0.00302034	0	1.99236e-05
1325.41	0.00934594	-0.00300035	0	3.90095e-05
1335.41	0.00936503	-0.00294456	0	-7.55058e-05
1345.41	0.00944138	-0.00292788	0	7.71812e-05
1355.41	0.00940321	-0.00291056	0	1.99236e-05
1365.41	0.00930776	-0.00287618	0	3.90095e-05
1375.41	0.00940321	-0.00285236	0	9.62671e-05
1385.41	0.00934594	-0.00280339	0	7.71812e-05
1395.41	0.00938412	-0.00280849	0	9.62671e-05
1405.41	0.00938412	-0.00276691	0	-7.55058e-05
1415.41	0.00940321	-0.0027457	0	7.71812e-05
1425.41	0.00917415	-0.0027478	0	-1.82481e-05
1435.41	0.00928868	-0.00274201	0	9.62671e-05
1445.41	0.00936503	-0.00272157	0	0.000115353
1455.41	0.00944138	-0.00266649	0	0.000115353
1465.41	0.00923141	-0.00263809	0	3.90095e-05
1475.41	0.00930776	-0.00259778	0	0.000172611
1485.41	0.00930776	-0.00263185	0	8.37723e-07
1495.41	0.00936503	-0.00261026	0	8.37723e-07
1505.41	0.00936503	-0.00257601	0	3.90095e-05
1515.41	0.00932685	-0.0025783	0	0.000115353
1525.41	0.00932685	-0.00257225	0	3.90095e-05
1535.41	0.00938412	-0.00251577	0	-5.64199e-05
1545.41	0.00934594	-0.00249915	0	0.000134439
1555.41	0.00940321	-0.00249762	0	3.90095e-05
1565.41	0.00928868	-0.00247839	0	9.62671e-05
1575.41	0.00932685	-0.00246992	0	0.000134439
1585.41	0.00936503	-0.00247234	0	5.80953e-05
1595.41	0.00938412	-0.00241121	0	-5.64199e-05
1605.41	0.00940321	-0.0024079	0	3.90095e-05
1615.41	0.00930776	-0.00238339	0	5.80953e-05
1625.41	0.00940321	-0.00235868	0	-5.64199e-05
1635.41	0.00932685	-0.00234945	0	7.71812e-05
1645.41	0.00940321	-0.00232659	0	3.90095e-05
1655.41	0.00932685	-0.00233264	0	1.99236e-05
1665.41	0.00946047	-0.00230525	0	-5.64199e-05
1675.41	0.00934594	-0.00229297	0	7.71812e-05
1685.41	0.00928868	-0.00229354	0	0.000115353
1695.41	0.00934594	-0.00224349	0	5.80953e-05
1705.41	0.00934594	-0.00222349	0	9.62671e-05
1715.41	0.00940321	-0.00224992	0	8.37723e-07
1725.41	0.00949865	-0.00224839	0	0.000115353
1735.41	0.00944138	-0.0022128	0	3.90095e-05
1745.41	0.00940321	-0.00221878	0	-3.7334e-05
1755.41	0.00936503	-0.00216479	0	0.000153525
1765.41	0.00940321	-0.00219465	0	9.62671e-05
1775.41	0.00930776	-0.00214326	0	7.71812e-05
1785.41	0.00940321	-0.0021574	0	5.80953e-05
1795.41	0.00934594	-0.00211907	0	1.99236e-05
1805.41	0.00936503	-0.00215199	0	7.71812e-05
1815.41	0.00932685	-0.00208532	0	9.62671e-05
1825.41	0.00936503	-0.00209856	0	0.000172611
1835.41	0.00938412	-0.00207933	0	0.000210782
1845.41	0.00938412	-0.00206545	0	0.000153525
1855.41	0.00942229	-0.00205526	0	3.90095e-05
1860.05	0.00946047	-0.00203762	0	5.80953e-05