File: EXPERIMENTAL-DATA/Electrochemical-cycling/S-series/2024-06-19_S09_Icell_t1800_C0030_J01_04_CP_C09.txt
time/s	Ewe/V	I/mA	error	Ece/V
1860.21	-0.00224636	-0.194643	0	-0.00118707
1860.21	-0.00753729	-0.195979	0	-0.00118707
1860.21	-0.0116615	-0.195985	0	2.44831e-05
1860.21	-0.0134366	-0.195985	0	-1.36875e-05
1860.21	-0.0151735	-0.195982	0	8.1739e-05
1860.21	-0.0167959	-0.195984	0	2.44831e-05
1860.21	-0.0182274	-0.195984	0	5.39784e-06
1860.21	-0.0195444	-0.195985	0	0.000100824
1860.21	-0.020995	-0.195984	0	2.44831e-05
1860.21	-0.0223311	-0.195987	0	0.000138995
1860.21	-0.0235717	-0.195982	0	0.00015808
1860.21	-0.024736	-0.195985	0	0.000138995
1860.21	-0.0259957	-0.195984	0	0.000100824
1860.21	-0.0273509	-0.195986	0	0.000100824
1860.21	-0.0284007	-0.195986	0	5.39784e-06
1860.21	-0.0294886	-0.195977	0	5.39784e-06
1860.21	-0.0306147	-0.195983	0	8.1739e-05
1860.21	-0.0317218	-0.195984	0	0.000138995
1860.21	-0.0327525	-0.195984	0	0.000138995
1860.21	-0.0340122	-0.195986	0	8.1739e-05
1860.21	-0.0360354	-0.195984	0	0.000177165
1860.21	-0.0380204	-0.195987	0	-1.36875e-05
1860.21	-0.0391084	-0.195985	0	0.00015808
1860.21	-0.0409217	-0.195989	0	4.35684e-05
1860.21	-0.0427158	-0.195989	0	5.39784e-06
1860.21	-0.0437847	-0.195985	0	4.35684e-05
1860.21	-0.0455025	-0.195984	0	5.39784e-06
1860.21	-0.0472776	-0.195984	0	0.000138995
1860.21	-0.0490145	-0.195988	0	2.44831e-05
1860.21	-0.0507514	-0.195989	0	-1.36875e-05
1860.21	-0.0524501	-0.195987	0	8.1739e-05
1860.21	-0.0541298	-0.195983	0	-1.36875e-05
1860.21	-0.0556567	-0.195982	0	-3.27727e-05
1860.21	-0.0573363	-0.195987	0	5.39784e-06
1860.22	-0.0588442	-0.195981	0	6.26537e-05
1860.22	-0.0604284	-0.195985	0	-5.1858e-05
1860.22	-0.0617645	-0.19598	0	8.1739e-05
1860.22	-0.063425	-0.195984	0	-5.1858e-05
1860.22	-0.064742	-0.195982	0	0.000177165
1860.22	-0.066269	-0.195985	0	-1.36875e-05
1860.22	-0.0677005	-0.195987	0	0.000100824
1860.22	-0.0690557	-0.195988	0	8.1739e-05
1860.22	-0.070449	-0.195986	0	6.26537e-05
1860.22	-0.071766	-0.195982	0	0.000100824
1860.22	-0.0731403	-0.195982	0	8.1739e-05
1860.22	-0.0744191	-0.195982	0	0.00015808
1860.22	-0.0756788	-0.195988	0	0.000138995
1860.22	-0.0770722	-0.195989	0	-5.1858e-05
1860.22	-0.0783128	-0.195987	0	-5.1858e-05
1860.22	-0.0796107	-0.195987	0	5.39784e-06
1860.22	-0.0809468	-0.195982	0	6.26537e-05
1860.22	-0.0822256	-0.195984	0	5.39784e-06
1860.22	-0.0839625	-0.195983	0	0.000177165
1860.22	-0.0852604	-0.195987	0	0.000100824
1860.22	-0.086272	-0.195987	0	6.26537e-05
1860.22	-0.0875127	-0.195984	0	5.39784e-06
1860.22	-0.0885434	-0.195988	0	8.1739e-05
1860.22	-0.089784	-0.195986	0	0.00015808
1860.22	-0.0907956	-0.195985	0	8.1739e-05
1860.23	-0.0919981	-0.195989	0	-1.36875e-05
1860.23	-0.0932005	-0.195992	0	5.39784e-06
1860.23	-0.0942694	-0.19598	0	0.000100824
1860.23	-0.0958727	-0.195983	0	0.000196251
1860.23	-0.097037	-0.195986	0	6.26537e-05
1860.23	-0.0985067	-0.195984	0	0.000177165
1860.23	-0.0995374	-0.195984	0	4.35684e-05
1860.23	-0.100587	-0.195981	0	-3.27727e-05
1860.23	-0.102019	-0.195984	0	-7.09433e-05
1860.23	-0.103088	-0.195987	0	6.26537e-05
1860.23	-0.104099	-0.195994	0	-1.36875e-05
1860.23	-0.105531	-0.195989	0	0.00011991
1860.23	-0.106542	-0.195987	0	0.000100824
1860.23	-0.108069	-0.195987	0	0.000100824
1860.23	-0.109424	-0.195989	0	-1.36875e-05
1860.23	-0.110684	-0.195983	0	8.1739e-05
1860.23	-0.111734	-0.19599	0	0.000100824
1860.23	-0.113032	-0.195985	0	6.26537e-05
1860.23	-0.114406	-0.195988	0	-1.36875e-05
1860.23	-0.115628	-0.195983	0	2.44831e-05
1860.24	-0.116945	-0.195984	0	8.1739e-05
1860.24	-0.118262	-0.195985	0	-1.36875e-05
1860.24	-0.11954	-0.195988	0	0.000138995
1860.24	-0.120724	-0.19598	0	6.26537e-05
1860.24	-0.122003	-0.195991	0	6.26537e-05
1860.24	-0.123301	-0.195986	0	0.000138995
1860.24	-0.12435	-0.195985	0	-7.09433e-05
1860.24	-0.12561	-0.195985	0	-3.27727e-05
1860.24	-0.126717	-0.195977	0	4.35684e-05
1860.24	-0.12792	-0.195991	0	0.000100824
1860.24	-0.129027	-0.19598	0	-3.27727e-05
1860.24	-0.130134	-0.195985	0	0.000100824
1860.24	-0.131222	-0.195983	0	0.00015808
1860.24	-0.13231	-0.195988	0	2.44831e-05
1860.24	-0.133417	-0.195988	0	-9.00286e-05
1860.24	-0.134791	-0.195983	0	5.39784e-06
1860.25	-0.136299	-0.195982	0	-3.27727e-05
1860.25	-0.137501	-0.195983	0	-5.1858e-05
1860.25	-0.138818	-0.195985	0	6.26537e-05
1860.25	-0.140269	-0.195984	0	-1.36875e-05
1860.25	-0.141414	-0.195991	0	-0.000109114
1860.25	-0.142674	-0.195984	0	6.26537e-05
1860.25	-0.143685	-0.195982	0	6.26537e-05
1860.25	-0.144773	-0.195987	0	0.000177165
1860.25	-0.145823	-0.19599	0	5.39784e-06
1860.25	-0.14693	-0.195982	0	0.00015808
1860.25	-0.148037	-0.195986	0	0.000100824
1860.25	-0.149068	-0.195987	0	0.000177165
1860.25	-0.150366	-0.195982	0	0.000100824
1860.26	-0.151473	-0.195992	0	0.000100824
1860.26	-0.152599	-0.195987	0	0.000138995
1860.26	-0.153801	-0.195981	0	0.00011991
1860.26	-0.155004	-0.195986	0	4.35684e-05
1860.26	-0.156034	-0.195982	0	-3.27727e-05
1860.26	-0.157199	-0.195982	0	0.00015808
1860.26	-0.158439	-0.195984	0	2.44831e-05
1860.26	-0.159451	-0.195982	0	0.000100824
1860.26	-0.160577	-0.195982	0	2.44831e-05
1860.26	-0.161627	-0.195982	0	4.35684e-05
1860.26	-0.162829	-0.195984	0	8.1739e-05
1860.27	-0.164013	-0.195987	0	0.00011991
1860.27	-0.165425	-0.195987	0	8.1739e-05
1860.27	-0.166551	-0.195982	0	6.26537e-05
1860.27	-0.167601	-0.195985	0	8.1739e-05
1860.27	-0.168765	-0.195988	0	4.35684e-05
1860.27	-0.169853	-0.195991	0	5.39784e-06
1860.27	-0.171113	-0.195985	0	0.00015808
1860.27	-0.172144	-0.195979	0	0.000100824
1860.28	-0.173404	-0.195982	0	2.44831e-05
1860.28	-0.174549	-0.195991	0	8.1739e-05
1860.28	-0.175598	-0.195987	0	4.35684e-05
1860.28	-0.176763	-0.195985	0	5.39784e-06
1860.28	-0.177774	-0.195988	0	6.26537e-05
1860.28	-0.178901	-0.195986	0	0.000138995
1860.29	-0.179912	-0.195991	0	0.000177165
1860.3	-0.178824	-0.195988	0	6.26537e-05
1860.3	-0.177793	-0.19599	0	-5.1858e-05
1860.3	-0.176706	-0.195985	0	6.26537e-05
1860.3	-0.175637	-0.195988	0	6.26537e-05
1860.3	-0.174549	-0.195985	0	8.1739e-05
1860.3	-0.173365	-0.195985	0	5.39784e-06
1860.3	-0.172296	-0.195983	0	5.39784e-06
1860.31	-0.171209	-0.195984	0	-5.1858e-05
1860.31	-0.169987	-0.195985	0	0.000100824
1860.31	-0.168842	-0.195985	0	8.1739e-05
1860.31	-0.16783	-0.19599	0	4.35684e-05
1860.31	-0.166551	-0.195987	0	0.00011991
1860.31	-0.165349	-0.195983	0	-5.1858e-05
1860.31	-0.164318	-0.195984	0	8.1739e-05
1860.31	-0.162925	-0.195983	0	4.35684e-05
1860.31	-0.161894	-0.195985	0	2.44831e-05
1860.31	-0.160482	-0.195985	0	0.000100824
1860.32	-0.159451	-0.195984	0	-5.1858e-05
1860.32	-0.158363	-0.195988	0	4.35684e-05
1860.32	-0.157218	-0.195992	0	6.26537e-05
1860.32	-0.156168	-0.195987	0	4.35684e-05
1860.32	-0.15508	-0.195985	0	6.26537e-05
1860.32	-0.154049	-0.195984	0	6.26537e-05
1860.32	-0.152904	-0.195989	0	2.44831e-05
1860.32	-0.151664	-0.195985	0	0.000100824
1860.32	-0.150461	-0.195994	0	0.000100824
1860.32	-0.149278	-0.195985	0	-7.09433e-05
1860.32	-0.148228	-0.195985	0	2.44831e-05
1860.32	-0.14693	-0.19599	0	0.000196251
1860.33	-0.145918	-0.195985	0	4.35684e-05
1860.33	-0.144544	-0.195986	0	0.00011991
1860.33	-0.143342	-0.195992	0	8.1739e-05
1860.33	-0.14212	-0.195991	0	-3.27727e-05
1860.33	-0.140918	-0.195986	0	0.000100824
1860.33	-0.139658	-0.195982	0	5.39784e-06
1860.33	-0.138494	-0.195989	0	5.39784e-06
1860.33	-0.137482	-0.195982	0	8.1739e-05
1860.33	-0.136413	-0.195987	0	-1.36875e-05
1860.33	-0.13523	-0.195985	0	-7.09433e-05
1860.33	-0.134161	-0.19599	0	-3.27727e-05
1860.34	-0.133073	-0.195987	0	0.00015808
1860.34	-0.131928	-0.195987	0	0.000100824
1860.34	-0.13084	-0.195989	0	8.1739e-05
1860.34	-0.129695	-0.195983	0	0.000138995
1860.34	-0.128549	-0.195989	0	8.1739e-05
1860.34	-0.127461	-0.195985	0	8.1739e-05
1860.34	-0.12624	-0.195983	0	0.00015808
1860.34	-0.125209	-0.195987	0	4.35684e-05
1860.35	-0.124159	-0.195983	0	-3.27727e-05
1860.35	-0.123071	-0.195987	0	0.00011991
1860.35	-0.121964	-0.195987	0	4.35684e-05
1860.35	-0.120838	-0.195988	0	2.44831e-05
1860.35	-0.119769	-0.195989	0	2.44831e-05
1860.35	-0.118739	-0.195991	0	6.26537e-05
1860.35	-0.117708	-0.195987	0	0.000138995
1860.36	-0.116487	-0.195988	0	0.000196251
1860.36	-0.115418	-0.195985	0	8.1739e-05
1860.36	-0.114406	-0.195982	0	6.26537e-05
1860.36	-0.113375	-0.195981	0	-1.36875e-05
1860.36	-0.11223	-0.195985	0	8.1739e-05
1860.36	-0.111047	-0.195982	0	5.39784e-06
1860.37	-0.109959	-0.195989	0	8.1739e-05
1860.37	-0.108852	-0.195986	0	-1.36875e-05
1860.37	-0.107783	-0.195985	0	5.39784e-06
1860.37	-0.106657	-0.195985	0	6.26537e-05
1860.38	-0.105607	-0.19599	0	4.35684e-05
1860.38	-0.104519	-0.195991	0	4.35684e-05
1860.38	-0.103336	-0.195985	0	-1.36875e-05
1860.39	-0.102248	-0.195988	0	-1.36875e-05
1860.39	-0.10116	-0.195986	0	2.44831e-05
1860.39	-0.100148	-0.195985	0	0.000177165
1860.4	-0.099022	-0.195985	0	6.26537e-05
1860.4	-0.0979341	-0.195982	0	-3.27727e-05
1860.41	-0.0969034	-0.195987	0	2.44831e-05
1860.41	-0.0958154	-0.195977	0	4.35684e-05
1860.42	-0.0947466	-0.195986	0	2.44831e-05
1860.42	-0.0937159	-0.195987	0	-1.36875e-05
1860.43	-0.0926661	-0.195985	0	4.35684e-05
1860.44	-0.0916354	-0.195983	0	6.26537e-05
1860.45	-0.0904902	-0.195982	0	6.26537e-05
1860.46	-0.0894213	-0.195991	0	6.26537e-05
1860.47	-0.0884097	-0.195984	0	0.000100824
1860.48	-0.0873981	-0.195992	0	0.00011991
1860.5	-0.0863675	-0.195989	0	0.000100824
1860.51	-0.0853368	-0.195989	0	5.39784e-06
1860.54	-0.0843252	-0.195984	0	4.35684e-05
1860.56	-0.0832754	-0.195984	0	5.39784e-06
1860.59	-0.0822447	-0.195987	0	6.26537e-05
1860.64	-0.0812331	-0.195985	0	6.26537e-05
1860.69	-0.0802024	-0.195985	0	0.000138995
1860.78	-0.0791908	-0.19598	0	6.26537e-05
1860.91	-0.0781601	-0.195985	0	-1.36875e-05
1861.52	-0.0771103	-0.195986	0	4.35684e-05
1862.72	-0.078141	-0.195987	0	6.26537e-05
1863.85	-0.0791526	-0.195984	0	-3.27727e-05
1865.1	-0.0801833	-0.195992	0	6.26537e-05
1866.31	-0.081214	-0.195984	0	2.44831e-05
1867.64	-0.0822256	-0.195986	0	4.35684e-05
1868.98	-0.0832372	-0.195983	0	-3.27727e-05
1870.51	-0.084287	-0.195988	0	4.35684e-05
1872.15	-0.0853177	-0.195989	0	0.000100824
1873.91	-0.0863293	-0.195988	0	4.35684e-05
1875.63	-0.08736	-0.195985	0	6.26537e-05
1877.74	-0.0883716	-0.195988	0	-9.00286e-05
1879.95	-0.0894786	-0.19599	0	8.1739e-05
1882.42	-0.0904902	-0.195987	0	5.39784e-06
1885.05	-0.0915018	-0.195991	0	4.35684e-05
1887.82	-0.0925134	-0.195991	0	4.35684e-05
1890.93	-0.0935441	-0.195982	0	0.00011991
1894.23	-0.0945557	-0.195987	0	6.26537e-05
1898.01	-0.0955864	-0.195991	0	0.000138995
1901.97	-0.0966171	-0.195995	0	0.000138995
1906.48	-0.0976287	-0.195989	0	6.26537e-05
1912.39	-0.0986403	-0.19599	0	6.26537e-05
1918.43	-0.0996901	-0.19599	0	-3.27727e-05
1925.87	-0.100721	-0.195984	0	6.26537e-05
1935.13	-0.101732	-0.195991	0	0.000100824
1945.13	-0.102496	-0.195989	0	0.000100824
1955.13	-0.103068	-0.195991	0	0.000177165
1965.13	-0.103584	-0.195989	0	2.44831e-05
1968.21	-0.103851	-0.195989	0	4.35684e-05