File: EXPERIMENTAL-DATA/Electrochemical-cycling/S-series/2024-06-27_S18_Icell_t1800_C0010_J01_deltaX-110,1mm_04_CP_C05.txt
time/s	Ewe/V	I/mA	error	Ece/V
1860.21	0.00260218	-0.194684	0	-0.000797318
1860.21	-0.000204214	-0.195977	0	-0.000236112
1860.21	-0.00162386	-0.195982	0	-7.67139e-06
1860.21	-0.00303653	-0.195982	0	-0.00010311
1860.21	-0.00456374	-0.195984	0	-2.6759e-05
1860.21	-0.0058046	-0.195984	0	3.05039e-05
1860.21	-0.00708363	-0.195984	0	-7.67139e-06
1860.21	-0.00819086	-0.19598	0	3.05039e-05
1860.21	-0.00925991	-0.19598	0	6.86792e-05
1860.21	-0.0105199	-0.195982	0	-4.58467e-05
1860.21	-0.0115889	-0.195977	0	-4.58467e-05
1860.21	-0.0126007	-0.195983	0	0.000106855
1860.21	-0.0141088	-0.195978	0	-2.6759e-05
1860.21	-0.0151206	-0.19598	0	-7.67139e-06
1860.21	-0.0162278	-0.195985	0	3.05039e-05
1860.21	-0.0176214	-0.195981	0	4.95916e-05
1860.21	-0.0190532	-0.195983	0	6.86792e-05
1860.21	-0.0200649	-0.195987	0	6.86792e-05
1860.21	-0.0214776	-0.195981	0	-2.6759e-05
1860.21	-0.0228712	-0.195978	0	4.95916e-05
1860.21	-0.0242838	-0.195981	0	-4.58467e-05
1860.22	-0.0255056	-0.195982	0	6.86792e-05
1860.22	-0.0268801	-0.195984	0	-6.49344e-05
1860.22	-0.0280828	-0.195975	0	-4.58467e-05
1860.22	-0.0291518	-0.195984	0	-0.000122197
1860.22	-0.0302972	-0.195985	0	-8.4022e-05
1860.22	-0.0315763	-0.195989	0	0.000106855
1860.22	-0.0328744	-0.195986	0	0.00014503
1860.22	-0.0341344	-0.195982	0	-7.67139e-06
1860.22	-0.0353561	-0.195982	0	6.86792e-05
1860.22	-0.0365206	-0.195987	0	-2.6759e-05
1860.22	-0.0377424	-0.195989	0	-0.00010311
1860.22	-0.038926	-0.195981	0	3.05039e-05
1860.22	-0.0399568	-0.195979	0	3.05039e-05
1860.22	-0.0410832	-0.195982	0	1.14163e-05
1860.22	-0.0424577	-0.195983	0	-2.6759e-05
1860.22	-0.043584	-0.195978	0	1.14163e-05
1860.22	-0.0446339	-0.195987	0	-6.49344e-05
1860.23	-0.045703	-0.195984	0	0.000106855
1860.23	-0.0468675	-0.195984	0	-8.4022e-05
1860.23	-0.0479556	-0.195988	0	-6.49344e-05
1860.23	-0.0492919	-0.195984	0	-0.000141285
1860.23	-0.050361	-0.195984	0	-0.00010311
1860.23	-0.0514491	-0.195979	0	4.95916e-05
1860.23	-0.0527854	-0.195984	0	-4.58467e-05
1860.23	-0.0538354	-0.195984	0	8.77669e-05
1860.23	-0.0549044	-0.195981	0	3.05039e-05
1860.23	-0.0559735	-0.195982	0	-7.67139e-06
1860.23	-0.0571952	-0.195983	0	3.05039e-05
1860.23	-0.0582643	-0.195985	0	-8.4022e-05
1860.23	-0.0596197	-0.195981	0	-2.6759e-05
1860.23	-0.060956	-0.19598	0	4.95916e-05
1860.23	-0.0622541	-0.195982	0	-2.6759e-05
1860.24	-0.063495	-0.195987	0	3.05039e-05
1860.24	-0.0646595	-0.195986	0	6.86792e-05
1860.24	-0.0658622	-0.195983	0	-6.49344e-05
1860.24	-0.0668739	-0.195982	0	4.95916e-05
1860.24	-0.0681148	-0.195987	0	0.000125942
1860.24	-0.0691457	-0.195982	0	0.000164117
1860.24	-0.0704247	-0.19599	0	-0.000198548
1860.24	-0.0714556	-0.19598	0	1.14163e-05
1860.24	-0.0727346	-0.195979	0	4.95916e-05
1860.24	-0.0739564	-0.195978	0	1.14163e-05
1860.24	-0.07535	-0.195979	0	3.05039e-05
1860.24	-0.0766481	-0.195979	0	6.86792e-05
1860.25	-0.0778126	-0.195984	0	-4.58467e-05
1860.25	-0.0788244	-0.195984	0	1.14163e-05
1860.25	-0.080027	-0.195977	0	4.95916e-05
1860.25	-0.0810579	-0.195985	0	-4.58467e-05
1860.25	-0.0822797	-0.195985	0	6.86792e-05
1860.25	-0.0833296	-0.195983	0	-8.4022e-05
1860.25	-0.0843414	-0.195987	0	3.05039e-05
1860.25	-0.0853723	-0.195985	0	-6.49344e-05
1860.25	-0.0864222	-0.195985	0	-7.67139e-06
1860.25	-0.0877013	-0.195979	0	3.05039e-05
1860.25	-0.0887512	-0.195984	0	3.05039e-05
1860.25	-0.0897821	-0.195984	0	1.14163e-05
1860.26	-0.0909657	-0.19598	0	3.05039e-05
1860.26	-0.0922066	-0.195983	0	0.000106855
1860.26	-0.0932374	-0.195982	0	-7.67139e-06
1860.26	-0.0944401	-0.19598	0	6.86792e-05
1860.26	-0.0954901	-0.19598	0	-7.67139e-06
1860.26	-0.0966546	-0.195982	0	6.86792e-05
1860.26	-0.0977809	-0.195982	0	-8.4022e-05
1860.26	-0.0988499	-0.195982	0	1.14163e-05
1860.26	-0.100091	-0.195983	0	-2.6759e-05
1860.27	-0.101274	-0.195978	0	6.86792e-05
1860.27	-0.102515	-0.195984	0	0.000106855
1860.27	-0.103584	-0.195984	0	4.95916e-05
1860.27	-0.104615	-0.195987	0	-4.58467e-05
1860.27	-0.105684	-0.195987	0	-4.58467e-05
1860.27	-0.106734	-0.195982	0	-6.49344e-05
1860.27	-0.10788	-0.195983	0	4.95916e-05
1860.27	-0.109025	-0.195985	0	-4.58467e-05
1860.27	-0.110266	-0.195984	0	1.14163e-05
1860.28	-0.111335	-0.195991	0	-7.67139e-06
1860.28	-0.112366	-0.195983	0	0.000106855
1860.28	-0.113435	-0.195983	0	0.00014503
1860.28	-0.114504	-0.195983	0	-0.00010311
1860.28	-0.115668	-0.195985	0	-7.67139e-06
1860.28	-0.11668	-0.195987	0	4.95916e-05
1860.28	-0.11794	-0.195987	0	-2.6759e-05
1860.28	-0.119047	-0.195985	0	-2.6759e-05
1860.29	-0.120155	-0.19598	0	4.95916e-05
1860.29	-0.121166	-0.195986	0	1.14163e-05
1860.29	-0.122312	-0.195981	0	-7.67139e-06
1860.29	-0.123476	-0.19598	0	-4.58467e-05
1860.29	-0.124526	-0.195984	0	-8.4022e-05
1860.29	-0.125729	-0.195982	0	3.05039e-05
1860.3	-0.12676	-0.195983	0	1.14163e-05
1860.3	-0.127771	-0.195981	0	1.14163e-05
1860.3	-0.129012	-0.195987	0	3.05039e-05
1860.3	-0.130081	-0.195978	0	-6.49344e-05
1860.3	-0.131189	-0.195986	0	-7.67139e-06
1860.3	-0.132258	-0.195985	0	-4.58467e-05
1860.31	-0.133308	-0.195987	0	-7.67139e-06
1860.31	-0.134358	-0.195988	0	6.86792e-05
1860.31	-0.135408	-0.195982	0	4.95916e-05
1860.31	-0.136438	-0.195985	0	-7.67139e-06
1860.31	-0.137584	-0.195985	0	-6.49344e-05
1860.32	-0.138634	-0.195984	0	8.77669e-05
1860.32	-0.139817	-0.195982	0	4.95916e-05
1860.32	-0.140867	-0.195984	0	-2.6759e-05
1860.32	-0.141917	-0.195985	0	-6.49344e-05
1860.33	-0.143024	-0.195986	0	1.14163e-05
1860.33	-0.144094	-0.195985	0	-7.67139e-06
1860.33	-0.145163	-0.195989	0	6.86792e-05
1860.33	-0.146308	-0.195984	0	1.14163e-05
1860.34	-0.147434	-0.195989	0	-8.4022e-05
1860.34	-0.148446	-0.195985	0	4.95916e-05
1860.34	-0.149458	-0.195979	0	-7.67139e-06
1860.34	-0.15047	-0.19598	0	6.86792e-05
1860.35	-0.15152	-0.195987	0	-4.58467e-05
1860.35	-0.152589	-0.195984	0	4.95916e-05
1860.36	-0.153753	-0.195985	0	6.86792e-05
1860.36	-0.154784	-0.195984	0	0.000125942
1860.36	-0.155853	-0.19598	0	-2.6759e-05
1860.37	-0.156903	-0.195985	0	-4.58467e-05
1860.37	-0.157972	-0.195978	0	-2.6759e-05
1860.38	-0.15906	-0.195983	0	8.77669e-05
1860.39	-0.160072	-0.195989	0	1.14163e-05
1860.41	-0.158984	-0.195987	0	1.14163e-05
1860.42	-0.157934	-0.195985	0	-7.67139e-06
1860.42	-0.156846	-0.195985	0	3.05039e-05
1860.42	-0.155739	-0.195987	0	-6.49344e-05
1860.43	-0.15465	-0.195985	0	1.14163e-05
1860.43	-0.1536	-0.195982	0	-8.4022e-05
1860.43	-0.152455	-0.19598	0	-4.58467e-05
1860.43	-0.151329	-0.195986	0	1.14163e-05
1860.43	-0.150279	-0.195982	0	-4.58467e-05
1860.44	-0.14921	-0.195991	0	-4.58467e-05
1860.44	-0.148122	-0.195986	0	-7.67139e-06
1860.44	-0.147033	-0.195982	0	-4.58467e-05
1860.44	-0.146003	-0.195982	0	1.14163e-05
1860.44	-0.144991	-0.195987	0	3.05039e-05
1860.44	-0.14375	-0.195984	0	-0.00010311
1860.45	-0.142624	-0.195985	0	3.05039e-05
1860.45	-0.141593	-0.195985	0	3.05039e-05
1860.45	-0.140486	-0.195982	0	0.000106855
1860.45	-0.13934	-0.195977	0	-4.58467e-05
1860.45	-0.138176	-0.195984	0	0.000106855
1860.45	-0.137164	-0.195985	0	3.05039e-05
1860.46	-0.136152	-0.19598	0	1.14163e-05
1860.46	-0.135083	-0.195982	0	-7.67139e-06
1860.46	-0.134052	-0.195981	0	-6.49344e-05
1860.46	-0.132983	-0.195983	0	4.95916e-05
1860.46	-0.131914	-0.195978	0	-8.4022e-05
1860.46	-0.13073	-0.195988	0	-7.67139e-06
1860.47	-0.129623	-0.195982	0	1.14163e-05
1860.47	-0.128573	-0.195984	0	-7.67139e-06
1860.47	-0.12739	-0.195982	0	-4.58467e-05
1860.47	-0.126282	-0.195985	0	3.05039e-05
1860.47	-0.12508	-0.195986	0	-7.67139e-06
1860.47	-0.123934	-0.195982	0	1.14163e-05
1860.48	-0.122808	-0.195986	0	4.95916e-05
1860.48	-0.121701	-0.195978	0	-0.000122197
1860.48	-0.120689	-0.195982	0	0.000164117
1860.48	-0.119563	-0.195985	0	4.95916e-05
1860.48	-0.118475	-0.195983	0	0.000106855
1860.48	-0.117367	-0.19598	0	-4.58467e-05
1860.49	-0.116184	-0.195984	0	3.05039e-05
1860.49	-0.115019	-0.19598	0	-2.6759e-05
1860.49	-0.113969	-0.195985	0	-4.58467e-05
1860.49	-0.112824	-0.195985	0	0.000106855
1860.49	-0.111659	-0.195982	0	0.000125942
1860.5	-0.110648	-0.195984	0	-8.4022e-05
1860.5	-0.109617	-0.195985	0	-7.67139e-06
1860.5	-0.108471	-0.195984	0	6.86792e-05
1860.5	-0.107307	-0.195984	0	-2.6759e-05
1860.5	-0.106142	-0.195984	0	-2.6759e-05
1860.51	-0.105054	-0.195983	0	1.14163e-05
1860.51	-0.10389	-0.195983	0	-2.6759e-05
1860.51	-0.102859	-0.195979	0	1.14163e-05
1860.51	-0.101733	-0.195978	0	-7.67139e-06
1860.52	-0.100721	-0.195987	0	0.000106855
1860.52	-0.0996135	-0.19599	0	-7.67139e-06
1860.52	-0.0986018	-0.195985	0	-6.49344e-05
1860.52	-0.0975518	-0.195989	0	6.86792e-05
1860.53	-0.0964255	-0.195984	0	-2.6759e-05
1860.53	-0.0952419	-0.195982	0	-7.67139e-06
1860.53	-0.0941156	-0.195984	0	1.14163e-05
1860.54	-0.0930083	-0.195985	0	3.05039e-05
1860.54	-0.0919393	-0.195986	0	-2.6759e-05
1860.55	-0.0908893	-0.195982	0	8.77669e-05
1860.55	-0.0898012	-0.195986	0	-4.58467e-05
1860.55	-0.0887703	-0.195983	0	1.14163e-05
1860.56	-0.0877585	-0.19598	0	-2.6759e-05
1860.56	-0.0867277	-0.195987	0	-2.6759e-05
1860.57	-0.0856205	-0.195984	0	1.14163e-05
1860.57	-0.0845323	-0.195982	0	4.95916e-05
1860.58	-0.0834824	-0.19598	0	-7.67139e-06
1860.59	-0.0824515	-0.195983	0	3.05039e-05
1860.6	-0.0814015	-0.19598	0	6.86792e-05
1860.6	-0.0803898	-0.195977	0	-2.6759e-05
1860.61	-0.079378	-0.195986	0	-4.58467e-05
1860.62	-0.0783662	-0.195983	0	-8.4022e-05
1860.63	-0.0773544	-0.195982	0	1.14163e-05
1860.65	-0.0763426	-0.195982	0	3.05039e-05
1860.66	-0.0752736	-0.195986	0	-2.6759e-05
1860.68	-0.0742046	-0.195984	0	-6.49344e-05
1860.7	-0.0731928	-0.195982	0	1.14163e-05
1860.72	-0.072181	-0.195978	0	-4.58467e-05
1860.75	-0.0711501	-0.195985	0	-2.6759e-05
1860.79	-0.0701193	-0.195983	0	-6.49344e-05
1860.83	-0.0691075	-0.195985	0	6.86792e-05
1860.89	-0.0680575	-0.195977	0	-4.58467e-05
1860.97	-0.0669694	-0.195988	0	1.14163e-05
1861.09	-0.0659385	-0.195984	0	6.86792e-05
1861.25	-0.0649267	-0.19598	0	-7.67139e-06
1861.6	-0.0638959	-0.19598	0	1.14163e-05
1864.74	-0.0649077	-0.195983	0	-2.6759e-05
1866.08	-0.0659194	-0.19599	0	1.14163e-05
1867.5	-0.0669503	-0.195985	0	-2.6759e-05
1868.86	-0.0680003	-0.195983	0	3.05039e-05
1870.52	-0.0690311	-0.195987	0	3.05039e-05
1872.18	-0.0700429	-0.195987	0	0.000125942
1873.9	-0.0710738	-0.195979	0	4.95916e-05
1876.02	-0.0720856	-0.195987	0	1.14163e-05
1878.23	-0.0730973	-0.195989	0	4.95916e-05
1880.83	-0.0741282	-0.195985	0	-6.49344e-05
1883.7	-0.07514	-0.195983	0	0.000125942
1887.36	-0.0761899	-0.195986	0	0.000106855
1891.7	-0.0772208	-0.195988	0	3.05039e-05
1896.21	-0.0777935	-0.195987	0	0.000183205