File: EXPERIMENTAL-DATA/Electrochemical-cycling/S-series/2024-06-19_S08_Icell_t1800_C0010_J01_02_MB_C10.txt
time/s	Ewe/V	I/mA	error	Ece/V
60.053	2.85489	-0.0250155	0	-0.00123446
60.1432	0.00861147	-5.82596	0	0.000110157
60.1436	0.00870693	-5.76313	0	3.37954e-05
60.144	0.00859238	-5.7024	0	0.00020561
60.1444	0.00851602	-5.64294	0	9.10669e-05
60.1448	0.00863056	-5.58502	0	0.000129248
60.1452	0.0085542	-5.52773	0	7.19764e-05
60.1456	0.00870693	-5.47286	0	1.47049e-05
60.146	0.00872602	-5.41869	0	1.47049e-05
60.1464	0.00861147	-5.3665	0	5.28859e-05
60.1468	0.00864965	-5.31559	0	-2.34761e-05
60.1472	0.00863056	-5.26486	0	3.37954e-05
60.1478	0.00866874	-5.19171	0	5.28859e-05
60.1484	0.00863056	-5.12186	0	-4.25666e-05
60.149	0.00868784	-5.05457	0	-4.38561e-06
60.1496	0.00859238	-4.98874	0	-2.34761e-05
60.1502	0.00863056	-4.92508	0	-8.07476e-05
60.1508	0.00872602	-4.86397	0	7.19764e-05
60.1514	0.00863056	-4.80471	0	0.000148338
60.152	0.00864965	-4.74729	0	3.37954e-05
60.1526	0.00870693	-4.69147	0	1.47049e-05
60.1532	0.00870693	-4.63768	0	1.47049e-05
60.1538	0.00874511	-4.58486	0	-4.25666e-05
60.1544	0.00864965	-4.53356	0	1.47049e-05
60.1552	0.00864965	-4.46837	0	7.19764e-05
60.156	0.00870693	-4.40509	0	5.28859e-05
60.1568	0.00863056	-4.34379	0	5.28859e-05
60.1576	0.00863056	-4.28662	0	-2.34761e-05
60.1584	0.00868784	-4.22997	0	-6.16571e-05
60.1592	0.00864965	-4.17523	0	-4.38561e-06
60.16	0.00870693	-4.12145	0	-6.16571e-05
60.161	0.00863056	-4.05836	0	1.47049e-05
60.162	0.00859238	-3.99852	0	-2.34761e-05
60.163	0.00870693	-3.93983	0	-2.34761e-05
60.164	0.0087642	-3.88388	0	0.000129248
60.165	0.00868784	-3.82965	0	-2.34761e-05
60.166	0.00863056	-3.77733	0	7.19764e-05
60.167	0.00864965	-3.7268	0	-4.25666e-05
60.1682	0.00859238	-3.66817	0	9.10669e-05
60.1694	0.00872602	-3.61197	0	9.10669e-05
60.1706	0.00868784	-3.55819	0	-2.34761e-05
60.1718	0.00870693	-3.50619	0	-6.16571e-05
60.1732	0.00861147	-3.44858	0	-8.07476e-05
60.1746	0.00861147	-3.39174	0	-8.07476e-05
60.176	0.00868784	-3.33853	0	-4.25666e-05
60.1774	0.00859238	-3.28787	0	3.37954e-05
60.1788	0.00870693	-3.23746	0	-4.38561e-06
60.1804	0.00874511	-3.18304	0	1.47049e-05
60.182	0.00863056	-3.12938	0	0.000129248
60.1836	0.00863056	-3.0791	0	-2.34761e-05
60.1854	0.00864965	-3.0236	0	-2.34761e-05
60.1872	0.00851602	-2.97096	0	1.47049e-05
60.1892	0.00863056	-2.91508	0	7.19764e-05
60.1912	0.00868784	-2.86142	0	5.28859e-05
60.1932	0.00864965	-2.80872	0	-4.38561e-06
60.1954	0.00870693	-2.75449	0	9.10669e-05
60.1976	0.00872602	-2.70102	0	3.37954e-05
60.1998	0.00864965	-2.65068	0	-4.38561e-06
60.2022	0.00861147	-2.59785	0	0.000129248
60.2046	0.00861147	-2.54675	0	1.47049e-05
60.2072	0.00864965	-2.49354	0	5.28859e-05
60.2098	0.00857329	-2.44268	0	-2.34761e-05
60.2126	0.00863056	-2.39017	0	5.28859e-05
60.2154	0.00861147	-2.33919	0	0.000110157
60.2184	0.00864965	-2.28726	0	1.47049e-05
60.2214	0.00868784	-2.23698	0	3.37954e-05
60.2246	0.00863056	-2.18696	0	-8.07476e-05
60.228	0.00866874	-2.13445	0	3.37954e-05
60.2316	0.0085542	-2.08187	0	0.00020561
60.2354	0.00864965	-2.02943	0	5.28859e-05
60.2392	0.00872602	-1.97838	0	-4.25666e-05
60.2432	0.00859238	-1.9274	0	-2.34761e-05
60.2474	0.00868784	-1.87719	0	1.47049e-05
60.252	0.00857329	-1.8243	0	-2.34761e-05
60.2566	0.00866874	-1.77319	0	-4.38561e-06
60.2616	0.00866874	-1.72208	0	-2.34761e-05
60.2668	0.00872602	-1.67085	0	-4.25666e-05
60.2724	0.00872602	-1.61821	0	-2.34761e-05
60.2782	0.00866874	-1.56755	0	-2.34761e-05
60.2844	0.00866874	-1.51619	0	-4.25666e-05
60.291	0.00864965	-1.4661	0	-4.25666e-05
60.2978	0.00872602	-1.41506	0	-4.38561e-06
60.3052	0.00859238	-1.36478	0	5.28859e-05
60.313	0.00868784	-1.31361	0	1.47049e-05
60.3214	0.00868784	-1.26352	0	1.47049e-05
60.3302	0.00868784	-1.21343	0	3.37954e-05
60.3402	0.00864965	-1.16201	0	5.28859e-05
60.3506	0.00866874	-1.11173	0	-6.16571e-05
60.362	0.00863056	-1.06107	0	1.47049e-05
60.3744	0.00870693	-1.01034	0	3.37954e-05
60.388	0.00868784	-0.959935	0	1.47049e-05
60.4028	0.00863056	-0.909656	0	1.47049e-05
60.4192	0.00859238	-0.858357	0	5.28859e-05
60.4376	0.00857329	-0.807824	0	0.000129248
60.4584	0.00870693	-0.7578	0	-4.38561e-06
60.4814	0.00870693	-0.707139	0	1.47049e-05
60.5076	0.00857329	-0.656987	0	9.10669e-05
60.5384	0.00868784	-0.605689	0	-4.38561e-06
60.5746	0.00857329	-0.554773	0	0.000110157
60.6172	0.00872602	-0.504621	0	7.19764e-05
60.6676	0.00870693	-0.454597	0	5.28859e-05
60.731	0.00874511	-0.404127	0	-8.07476e-05
60.8178	0.00874511	-0.354026	0	-4.25666e-05
60.9246	0.00872602	-0.303763	0	3.37954e-05
61.0712	0.00874511	-0.253664	0	-6.16571e-05
61.2852	0.00868784	-0.203592	0	-4.38561e-06
61.6292	0.00872602	-0.153583	0	-6.16571e-05
62.293	0.00872602	-0.103529	0	9.10669e-05
64.1986	0.00868784	-0.0535264	0	-6.16571e-05
74.1986	0.00870693	-0.0160074	0	5.28859e-05
84.1986	0.00868784	-0.00940177	0	3.37954e-05
94.1986	0.00868784	-0.00652208	0	5.28859e-05
104.199	0.00872602	-0.00498298	0	3.37954e-05
114.199	0.00870693	-0.00397044	0	-4.25666e-05
124.199	0.00868784	-0.00333758	0	-6.16571e-05
134.199	0.00870693	-0.00289788	0	5.28859e-05
144.199	0.00874511	-0.00252238	0	0.000110157
154.199	0.00866874	-0.00224949	0	9.10669e-05
164.199	0.00863056	-0.00201777	0	7.19764e-05
174.199	0.00870693	-0.00185446	0	0.000129248
184.199	0.00874511	-0.00173335	0	1.47049e-05
194.199	0.00870693	-0.00158602	0	-2.34761e-05
204.199	0.00866874	-0.00150774	0	3.37954e-05
214.199	0.00868784	-0.00144295	0	0.000110157
224.199	0.0087642	-0.00134354	0	5.28859e-05
234.199	0.00861147	-0.00129937	0	9.10669e-05
244.199	0.00864965	-0.00120785	0	3.37954e-05
254.199	0.00872602	-0.0010919	0	7.19764e-05
264.199	0.00868784	-0.00111964	0	-4.25666e-05
274.199	0.00866874	-0.00104442	0	5.28859e-05
284.199	0.00863056	-0.0010196	0	-2.34761e-05
294.199	0.00872602	-0.000951119	0	7.19764e-05
304.199	0.00878329	-0.000919553	0	-2.34761e-05
314.199	0.00874511	-0.000899187	0	0.000110157
324.199	0.00874511	-0.000861447	0	-4.38561e-06
334.199	0.00872602	-0.000796659	0	1.47049e-05
344.199	0.00868784	-0.000800605	0	-4.38561e-06
354.199	0.00874511	-0.000803215	0	-2.34761e-05
364.199	0.00870693	-0.00076522	0	-6.16571e-05
374.199	0.00868784	-0.000760701	0	-8.07476e-05
384.199	0.00868784	-0.000721561	0	-4.25666e-05
394.199	0.00868784	-0.000676885	0	1.47049e-05
404.199	0.00874511	-0.000650155	0	1.47049e-05
414.199	0.00863056	-0.000653082	0	9.10669e-05
424.199	0.0087642	-0.000635644	0	-6.16571e-05
434.199	0.00864965	-0.000632971	0	9.10669e-05
444.199	0.00874511	-0.000659383	0	-0.000118929
454.199	0.00868784	-0.000638254	0	-4.38561e-06
464.199	0.00874511	-0.000574102	0	0.000129248
474.199	0.00870693	-0.000551445	0	9.10669e-05
484.199	0.00866874	-0.000552018	0	1.47049e-05
494.199	0.00868784	-0.000523888	0	5.28859e-05
504.199	0.00882147	-0.000514915	0	5.28859e-05
514.199	0.00868784	-0.000492131	0	-4.25666e-05
524.199	0.00870693	-0.000499895	0	5.28859e-05
534.199	0.00868784	-0.000503586	0	1.47049e-05
544.199	0.00864965	-0.000452482	0	0.000148338
554.199	0.00866874	-0.000475329	0	5.28859e-05
564.199	0.00880238	-0.000483285	0	9.10669e-05
574.199	0.00872602	-0.000439753	0	3.37954e-05
584.199	0.00866874	-0.000455982	0	5.28859e-05
594.199	0.00870693	-0.000465401	0	1.47049e-05
604.199	0.00863056	-0.000465847	0	7.19764e-05
614.199	0.00868784	-0.000449936	0	-4.38561e-06
624.199	0.00868784	-0.000431734	0	-9.98381e-05
634.199	0.0087642	-0.000433325	0	1.47049e-05
644.199	0.0087642	-0.000444654	0	-4.38561e-06
654.199	0.00861147	-0.000418878	0	-8.07476e-05
664.199	0.00872602	-0.000417924	0	-6.16571e-05
674.199	0.0087642	-0.000397367	0	3.37954e-05
684.199	0.00878329	-0.000396731	0	9.10669e-05
694.199	0.00868784	-0.000424925	0	7.19764e-05
704.199	0.0087642	-0.000391194	0	3.37954e-05
714.199	0.00866874	-0.000374329	0	-2.34761e-05
724.199	0.00870693	-0.000398513	0	7.19764e-05
734.199	0.00863056	-0.000381966	0	-6.16571e-05
744.199	0.00874511	-0.000403159	0	9.10669e-05
754.199	0.00880238	-0.000357145	0	3.37954e-05
764.199	0.00866874	-0.000330416	0	5.28859e-05
774.199	0.00868784	-0.000326915	0	-6.16571e-05
784.199	0.00872602	-0.00036701	0	0.000167429
794.199	0.00864965	-0.000339835	0	9.10669e-05
804.199	0.00868784	-0.000318705	0	-2.34761e-05
814.199	0.00864965	-0.000344544	0	-4.25666e-05
824.199	0.00866874	-0.000329716	0	1.47049e-05
834.199	0.00866874	-0.000307504	0	-8.07476e-05
844.199	0.00866874	-0.000337607	0	-2.34761e-05
854.199	0.00872602	-0.000277274	0	-4.38561e-06
864.199	0.00863056	-0.000315842	0	-4.25666e-05
874.199	0.00874511	-0.000302286	0	-8.07476e-05
884.199	0.00868784	-0.000327743	0	7.19764e-05
894.199	0.00872602	-0.000330734	0	9.10669e-05
904.199	0.00864965	-0.000309286	0	-2.34761e-05
914.199	0.00861147	-0.000285421	0	7.19764e-05
924.199	0.00872602	-0.000301586	0	-4.25666e-05
934.199	0.00864965	-0.000329652	0	1.47049e-05
944.199	0.00870693	-0.000288539	0	1.47049e-05
954.199	0.00859238	-0.000308268	0	-4.38561e-06
964.199	0.00864965	-0.000294394	0	9.10669e-05
974.199	0.00864965	-0.000302286	0	3.37954e-05
984.199	0.00868784	-0.00025519	0	-4.25666e-05
994.199	0.00868784	-0.000258309	0	5.28859e-05
1004.2	0.00868784	-0.000267601	0	9.10669e-05
1014.2	0.00868784	-0.000263655	0	-6.16571e-05
1024.2	0.00868784	-0.000247044	0	1.47049e-05
1034.2	0.00872602	-0.000275556	0	3.37954e-05
1044.2	0.00872602	-0.000270974	0	1.47049e-05
1054.2	0.00874511	-0.000266137	0	9.10669e-05
1064.2	0.00866874	-0.000291848	0	1.47049e-05
1074.2	0.00874511	-0.000239662	0	7.19764e-05
1084.2	0.00872602	-0.000275492	0	-4.38561e-06
1094.2	0.00874511	-0.000261173	0	-9.98381e-05
1104.2	0.00870693	-0.000259073	0	5.28859e-05
1114.2	0.00874511	-0.000303304	0	1.47049e-05
1124.2	0.00872602	-0.000281602	0	-8.07476e-05
1134.2	0.00868784	-0.000261173	0	7.19764e-05
1144.2	0.00866874	-0.000248126	0	5.28859e-05
1154.2	0.00864965	-0.000235525	0	-4.38561e-06
1164.2	0.00866874	-0.000256463	0	0.000148338
1174.2	0.00874511	-0.000266582	0	-6.16571e-05
1184.2	0.00863056	-0.000264419	0	7.19764e-05
1194.2	0.00868784	-0.000243862	0	3.37954e-05
1204.2	0.00874511	-0.000256781	0	-9.98381e-05
1214.2	0.00866874	-0.000225724	0	1.47049e-05
1224.2	0.00872602	-0.000274156	0	-4.38561e-06
1234.2	0.00872602	-0.000257545	0	-4.38561e-06
1244.2	0.00866874	-0.000323288	0	-4.38561e-06
1254.2	0.00878329	-0.000265119	0	-2.34761e-05
1264.2	0.00866874	-0.00024609	0	1.47049e-05
1274.2	0.00863056	-0.000269701	0	-4.25666e-05
1284.2	0.00868784	-0.000247362	0	1.47049e-05
1294.2	0.00884056	-0.000218787	0	5.28859e-05
1304.2	0.00868784	-0.000235334	0	7.19764e-05
1314.2	0.00870693	-0.000227633	0	7.19764e-05
1324.2	0.00870693	-0.000242016	0	3.37954e-05
1334.2	0.0087642	-0.000234952	0	-4.25666e-05
1344.2	0.00870693	-0.000199694	0	0.000129248
1354.2	0.00861147	-0.00021675	0	-2.34761e-05
1364.2	0.00868784	-0.000207331	0	-4.25666e-05
1374.2	0.0087642	-0.000219551	0	3.37954e-05
1384.2	0.00861147	-0.000224133	0	3.37954e-05
1394.2	0.00884056	-0.000216941	0	-0.00015711
1404.2	0.00874511	-0.000219742	0	5.28859e-05
1414.2	0.00874511	-0.000229352	0	1.47049e-05
1424.2	0.00870693	-0.000170291	0	3.37954e-05
1434.2	0.00859238	-0.000226742	0	7.19764e-05
1444.2	0.00870693	-0.000275301	0	5.28859e-05
1454.2	0.00872602	-0.000187029	0	-4.38561e-06
1464.2	0.00870693	-0.000223878	0	7.19764e-05
1474.2	0.00853511	-0.000198867	0	3.37954e-05
1484.2	0.00870693	-0.000190212	0	5.28859e-05
1494.2	0.00866874	-0.000188302	0	0.000110157
1504.2	0.00872602	-0.000255763	0	5.28859e-05
1514.2	0.00868784	-0.000202876	0	7.19764e-05
1524.2	0.00868784	-0.000226424	0	7.19764e-05
1534.2	0.00863056	-0.000195112	0	-4.25666e-05
1544.2	0.00868784	-0.000192248	0	-4.25666e-05
1554.2	0.00872602	-0.000201094	0	-2.34761e-05
1564.2	0.00868784	-0.000385403	0	1.47049e-05
1574.2	0.00851602	-0.000241125	0	7.19764e-05
1584.2	0.00872602	-0.000217832	0	-6.16571e-05
1594.2	0.00874511	-0.000186584	0	0.000110157
1604.2	0.00870693	-0.000202176	0	-8.07476e-05
1614.2	0.00866874	-0.000211786	0	-4.38561e-06
1624.2	0.00868784	-0.000184038	0	-2.34761e-05
1634.2	0.00863056	-0.000204086	0	-4.25666e-05
1644.2	0.00870693	-0.00018442	0	-2.34761e-05
1654.2	0.00859238	-0.000209368	0	3.37954e-05
1664.2	0.0087642	-0.000210386	0	-2.34761e-05
1674.2	0.00872602	-0.000199121	0	-4.38561e-06
1684.2	0.00866874	-0.00018512	0	1.47049e-05
1694.2	0.00868784	-0.000196067	0	5.28859e-05
1704.2	0.00866874	-0.000172901	0	3.37954e-05
1714.2	0.00874511	-0.0001659	0	-8.07476e-05
1724.2	0.00864965	-0.00019874	0	0.000110157
1734.2	0.00872602	-0.000181302	0	-2.34761e-05
1744.2	0.00880238	-0.000204658	0	-6.16571e-05
1754.2	0.0087642	-0.000168509	0	0.000110157
1764.2	0.00861147	-0.000187411	0	0.000148338
1774.2	0.00859238	-0.000183211	0	-8.07476e-05
1784.2	0.00872602	-0.000145726	0	-4.38561e-06
1794.2	0.00868784	-0.000201222	0	0.000167429
1804.2	0.00872602	-0.000150753	0	-2.34761e-05
1814.2	0.0087642	-0.000159154	0	7.19764e-05
1824.2	0.00872602	-0.000199567	0	9.10669e-05
1834.2	0.00874511	-0.000144835	0	7.19764e-05
1844.2	0.00864965	-0.000177992	0	1.47049e-05
1854.2	0.00870693	-0.000159218	0	-8.07476e-05
1860.05	0.00872602	-0.000209877	0	-2.34761e-05