File: EXPERIMENTAL-DATA/Electrochemical-cycling/S-series/2024-06-14_S03_Icell_t1800_C0500_J01_deltaX-110,0mm_02_MB_C04.txt
time/s	Ewe/V	I/mA	error
60.053	2.69138	-0.0250249	0
60.1432	0.00940363	-10.4218	0
60.1434	0.00930818	-10.3605	0
60.1436	0.00926999	-10.2996	0
60.1438	0.00934635	-10.2394	0
60.144	0.00930818	-10.1799	0
60.1442	0.00930818	-10.1204	0
60.1444	0.00928908	-10.0619	0
60.1446	0.00923181	-10.004	0
60.1448	0.00930818	-9.94568	0
60.145	0.00936545	-9.88822	0
60.1452	0.00919363	-9.83253	0
60.1454	0.00932727	-9.77532	0
60.1456	0.0092509	-9.7192	0
60.1458	0.00930818	-9.66447	0
60.146	0.00928908	-9.60949	0
60.1462	0.00936545	-9.55546	0
60.1464	0.00921272	-9.50118	0
60.1466	0.00930818	-9.44785	0
60.1468	0.00934635	-9.39439	0
60.147	0.00928908	-9.34189	0
60.1472	0.00932727	-9.28939	0
60.1474	0.00926999	-9.23836	0
60.1476	0.00926999	-9.18688	0
60.1478	0.00938454	-9.13539	0
60.148	0.00932727	-9.08531	0
60.1482	0.0092509	-9.03529	0
60.1486	0.00926999	-8.93583	0
60.149	0.00932727	-8.83891	0
60.1494	0.00942272	-8.74193	0
60.1498	0.00921272	-8.64838	0
60.1502	0.00930818	-8.55522	0
60.1506	0.00928908	-8.46479	0
60.151	0.00932727	-8.37487	0
60.1514	0.00928908	-8.28712	0
60.1518	0.00928908	-8.19949	0
60.1522	0.00932727	-8.11472	0
60.1526	0.00940363	-8.03028	0
60.153	0.00936545	-7.94736	0
60.1534	0.00928908	-7.86603	0
60.1538	0.00936545	-7.78591	0
60.1542	0.00926999	-7.70719	0
60.1546	0.00940363	-7.62975	0
60.155	0.00919363	-7.55294	0
60.1554	0.00930818	-7.47861	0
60.1558	0.00934635	-7.40511	0
60.1562	0.00936545	-7.33091	0
60.1566	0.00938454	-7.259	0
60.157	0.00930818	-7.18951	0
60.1574	0.00934635	-7.11995	0
60.1578	0.00923181	-7.05122	0
60.1582	0.00928908	-6.98377	0
60.1586	0.00934635	-6.9167	0
60.159	0.00930818	-6.85153	0
60.1594	0.00936545	-6.78751	0
60.1598	0.00936545	-6.72477	0
60.1602	0.00932727	-6.66247	0
60.1606	0.00936545	-6.60074	0
60.161	0.00930818	-6.53984	0
60.1614	0.00938454	-6.47989	0
60.1618	0.00923181	-6.42103	0
60.1622	0.00932727	-6.36293	0
60.1626	0.00930818	-6.30623	0
60.163	0.00936545	-6.25016	0
60.1634	0.00936545	-6.19505	0
60.1638	0.00930818	-6.14052	0
60.1642	0.00942272	-6.08617	0
60.1646	0.00936545	-6.03335	0
60.165	0.00928908	-5.98111	0
60.1654	0.00934635	-5.93001	0
60.1658	0.00930818	-5.87872	0
60.1662	0.00934635	-5.82819	0
60.1668	0.00932727	-5.75647	0
60.1674	0.00944181	-5.68431	0
60.168	0.00932727	-5.61341	0
60.1686	0.00932727	-5.54418	0
60.1692	0.00932727	-5.47666	0
60.1698	0.00934635	-5.41092	0
60.1704	0.00936545	-5.3455	0
60.171	0.00936545	-5.28244	0
60.1716	0.00928908	-5.22027	0
60.1722	0.00938454	-5.16007	0
60.1728	0.00940363	-5.10012	0
60.1734	0.00930818	-5.04177	0
60.174	0.00940363	-4.98468	0
60.1746	0.00934635	-4.9283	0
60.1752	0.00932727	-4.87338	0
60.1758	0.00932727	-4.81923	0
60.1764	0.00944181	-4.76654	0
60.177	0.00932727	-4.71537	0
60.1776	0.00932727	-4.66421	0
60.1784	0.00932727	-4.59854	0
60.1792	0.00930818	-4.53445	0
60.18	0.00938454	-4.47126	0
60.1808	0.00942272	-4.41023	0
60.1816	0.00936545	-4.35029	0
60.1824	0.00932727	-4.29238	0
60.1832	0.00930818	-4.23542	0
60.184	0.00938454	-4.17917	0
60.1848	0.00930818	-4.12571	0
60.1856	0.00928908	-4.0729	0
60.1864	0.00932727	-4.02084	0
60.1872	0.0094609	-3.97076	0
60.1882	0.00938454	-3.91088	0
60.1892	0.00940363	-3.85227	0
60.1902	0.00938454	-3.79315	0
60.1912	0.00932727	-3.73778	0
60.1922	0.00938454	-3.68299	0
60.1932	0.00928908	-3.63068	0
60.1942	0.00936545	-3.57939	0
60.1954	0.0092509	-3.51996	0
60.1966	0.0094609	-3.46173	0
60.1978	0.00936545	-3.40687	0
60.199	0.00942272	-3.35195	0
60.2002	0.00932727	-3.29952	0
60.2014	0.00936545	-3.24912	0
60.2028	0.00940363	-3.19261	0
60.2042	0.00938454	-3.13705	0
60.2056	0.00936545	-3.08379	0
60.207	0.00936545	-3.03237	0
60.2086	0.00936545	-2.97599	0
60.2102	0.00938454	-2.92279	0
60.2118	0.00934635	-2.87124	0
60.2134	0.00936545	-2.8211	0
60.2152	0.0094609	-2.76561	0
60.217	0.00944181	-2.71387	0
60.219	0.00940363	-2.65927	0
60.221	0.00932727	-2.60632	0
60.223	0.00938454	-2.55548	0
60.2252	0.00942272	-2.50279	0
60.2274	0.00942272	-2.45149	0
60.2298	0.00936545	-2.39899	0
60.2322	0.00934635	-2.3477	0
60.2348	0.00940363	-2.2973	0
60.2374	0.00940363	-2.24677	0
60.2402	0.00942272	-2.1958	0
60.2432	0.00936545	-2.14407	0
60.2464	0.00934635	-2.09137	0
60.2498	0.0092509	-2.03913	0
60.2532	0.00940363	-1.98898	0
60.257	0.00940363	-1.93661	0
60.2608	0.00928908	-1.88621	0
60.265	0.00936545	-1.83384	0
60.2694	0.00934635	-1.78216	0
60.274	0.00938454	-1.73106	0
60.279	0.00934635	-1.6792	0
60.2842	0.00942272	-1.6281	0
60.2898	0.00936545	-1.57623	0
60.2958	0.00928908	-1.52545	0
60.3022	0.00940363	-1.47327	0
60.309	0.00942272	-1.42236	0
60.3162	0.00942272	-1.37177	0
60.324	0.00940363	-1.31959	0
60.3326	0.00942272	-1.269	0
60.3416	0.00944181	-1.21821	0
60.3514	0.00940363	-1.1673	0
60.362	0.00928908	-1.11709	0
60.3736	0.00934635	-1.06657	0
60.3864	0.00926999	-1.01642	0
60.4002	0.00940363	-0.965957	0
60.4158	0.00934635	-0.915875	0
60.4332	0.00940363	-0.864647	0
60.4532	0.00947999	-0.814565	0
60.475	0.00940363	-0.764229	0
60.5002	0.00942272	-0.714146	0
60.5296	0.0094609	-0.664128	0
60.5638	0.00938454	-0.613791	0
60.6046	0.00938454	-0.563645	0
60.6544	0.00942272	-0.513118	0
60.7154	0.00936545	-0.462908	0
60.793	0.00938454	-0.412784	0
60.8926	0.00949908	-0.362607	0
61.0262	0.00944181	-0.312544	0
61.2134	0.00944181	-0.262494	0
61.4924	0.00942272	-0.212469	0
61.9508	0.00936545	-0.162413	0
62.8328	0.00940363	-0.112407	0
65.228	0.00938454	-0.062389	0
75.228	0.00934635	-0.0235508	0
85.228	0.00942272	-0.0147469	0
95.228	0.00936545	-0.010665	0
105.228	0.00938454	-0.00844712	0
115.228	0.00928908	-0.00698829	0
125.228	0.00930818	-0.00591436	0
135.228	0.00944181	-0.00511974	0
145.228	0.00934635	-0.00455669	0
155.228	0.00936545	-0.00403237	0
165.228	0.00938454	-0.00369034	0
175.228	0.00928908	-0.00339503	0
185.228	0.00930818	-0.00313811	0
195.228	0.00936545	-0.00292741	0
205.228	0.00938454	-0.00272091	0
215.228	0.00930818	-0.00254725	0
225.228	0.00938454	-0.00246908	0
235.228	0.00934635	-0.00235742	0
245.228	0.00926999	-0.00215996	0
255.228	0.00938454	-0.00206651	0
265.228	0.00936545	-0.00201597	0
275.228	0.00932727	-0.00191316	0
285.228	0.00934635	-0.00182614	0
295.228	0.00944181	-0.00177197	0
305.228	0.00934635	-0.00169285	0
315.228	0.00938454	-0.00161779	0
325.228	0.00942272	-0.00156776	0
335.228	0.00934635	-0.00150321	0
345.228	0.00928908	-0.00148227	0
355.228	0.00934635	-0.00144878	0
365.228	0.00938454	-0.00139945	0
375.228	0.00938454	-0.00137793	0
385.228	0.00923181	-0.00135343	0
395.228	0.00944181	-0.0012631	0
405.228	0.00938454	-0.00123751	0
415.228	0.00934635	-0.00121866	0
425.228	0.00934635	-0.00117022	0
435.228	0.00940363	-0.00115214	0
445.228	0.00942272	-0.00113235	0
455.228	0.00942272	-0.00111242	0
465.228	0.00934635	-0.00107512	0
475.228	0.00940363	-0.00106404	0
485.228	0.00934635	-0.00103126	0
495.228	0.00938454	-0.00101579	0
505.228	0.00936545	-0.000994528	0
515.228	0.00919363	-0.000987971	0
525.228	0.00934635	-0.000995037	0
535.228	0.00940363	-0.000950414	0
545.228	0.00947999	-0.000929407	0
555.228	0.00926999	-0.000894523	0
565.228	0.00936545	-0.000877017	0
575.228	0.00928908	-0.000884019	0
585.228	0.00936545	-0.000838314	0
595.228	0.00936545	-0.0008816	0
605.228	0.00947999	-0.000843215	0
615.228	0.00942272	-0.000827619	0
625.228	0.00926999	-0.000823481	0
635.228	0.00934635	-0.000812914	0
645.228	0.00940363	-0.000738054	0
655.228	0.00932727	-0.000803811	0
665.228	0.00938454	-0.000719784	0
675.228	0.00938454	-0.000753204	0
685.228	0.00932727	-0.000743719	0
695.228	0.00926999	-0.000729205	0
705.228	0.00934635	-0.000822781	0
715.228	0.00938454	-0.00073207	0
725.228	0.00934635	-0.000695404	0
735.228	0.00942272	-0.000693558	0
745.228	0.00930818	-0.000660647	0
755.228	0.00934635	-0.000687128	0
765.228	0.0094609	-0.000678789	0
775.228	0.00930818	-0.000977913	0
785.228	0.00932727	-0.000681017	0
795.228	0.00936545	-0.000653008	0
805.228	0.00938454	-0.000633465	0
815.228	0.00942272	-0.000609785	0
825.228	0.00938454	-0.000635311	0
835.228	0.00928908	-0.000618442	0
845.228	0.00926999	-0.000618888	0
855.228	0.00934635	-0.000671405	0
865.228	0.00942272	-0.000617997	0
875.228	0.00940363	-0.00060291	0
885.228	0.00944181	-0.000588905	0
895.228	0.00944181	-0.000588333	0
905.228	0.00926999	-0.000571591	0
915.228	0.00940363	-0.000572737	0
925.228	0.00930818	-0.000585341	0
935.228	0.00932727	-0.000546255	0
945.228	0.00938454	-0.000745756	0
955.228	0.00936545	-0.000562742	0
965.228	0.00936545	-0.000545428	0
975.228	0.00932727	-0.000567262	0
985.228	0.00930818	-0.000522193	0
995.228	0.00938454	-0.000588524	0
1005.23	0.00938454	-0.000513536	0
1015.23	0.0094609	-0.000522957	0
1025.23	0.00930818	-0.000484699	0
1035.23	0.00934635	-0.000502778	0
1045.23	0.00940363	-0.000487627	0
1055.23	0.00928908	-0.000524612	0
1065.23	0.00930818	-0.00050265	0
1075.23	0.00940363	-0.000515254	0
1085.23	0.00942272	-0.000464838	0
1095.23	0.00949908	-0.000474386	0
1105.23	0.00932727	-0.000458727	0
1115.23	0.00930818	-0.000484062	0
1125.23	0.00930818	-0.000493866	0
1135.23	0.00936545	-0.00041996	0
1145.23	0.00932727	-0.000455417	0
1155.23	0.00944181	-0.00045217	0
1165.23	0.00923181	-0.00045599	0
1175.23	0.00934635	-0.000463565	0
1185.23	0.00938454	-0.000450579	0
1195.23	0.00940363	-0.000431354	0
1205.23	0.00938454	-0.000431864	0
1215.23	0.00938454	-0.000423397	0
1225.23	0.00938454	-0.000481134	0
1235.23	0.00940363	-0.00043371	0
1245.23	0.00930818	-0.000427853	0
1255.23	0.00934635	-0.000434855	0
1265.23	0.00936545	-0.000474386	0
1275.23	0.00938454	-0.000429636	0
1285.23	0.00938454	-0.000414358	0
1295.23	0.00932727	-0.000405892	0
1305.23	0.00944181	-0.000384694	0
1315.23	0.00940363	-0.000409711	0
1325.23	0.00932727	-0.00039978	0
1335.23	0.00944181	-0.000410411	0
1345.23	0.00944181	-0.000410666	0
1355.23	0.00930818	-0.000384885	0
1365.23	0.00936545	-0.000377691	0
1375.23	0.00942272	-0.000386922	0
1385.23	0.00934635	-0.00039316	0
1395.23	0.00928908	-0.000392205	0
1405.23	0.0094609	-0.00039176	0
1415.23	0.00938454	-0.00038202	0
1425.23	0.00932727	-0.000388004	0
1435.23	0.00934635	-0.000348664	0
1445.23	0.00936545	-0.000377819	0
1455.23	0.00938454	-0.000370753	0
1465.23	0.0094609	-0.000362732	0
1475.23	0.00936545	-0.000777648	0
1485.23	0.00934635	-0.000457836	0
1495.23	0.00936545	-0.000408756	0
1505.23	0.00936545	-0.000354011	0
1515.23	0.00940363	-0.000337651	0
1525.23	0.00936545	-0.000363751	0
1535.23	0.00936545	-0.000360504	0
1545.23	0.00934635	-0.000361459	0
1555.23	0.00932727	-0.000345545	0
1565.23	0.00940363	-0.000346372	0
1575.23	0.00938454	-0.000337269	0
1585.23	0.00942272	-0.000345481	0
1595.23	0.00932727	-0.000351019	0
1605.23	0.00936545	-0.000339115	0
1615.23	0.00928908	-0.000324411	0
1625.23	0.00940363	-0.000552112	0
1635.23	0.00928908	-0.000357512	0
1645.23	0.00938454	-0.000337015	0
1655.23	0.00940363	-0.000330267	0
1665.23	0.00936545	-0.000306205	0
1675.23	0.0092509	-0.000307032	0
1685.23	0.00936545	-0.000309579	0
1695.23	0.00934635	-0.000285834	0
1705.23	0.00942272	-0.000297102	0
1715.23	0.00926999	-0.000310915	0
1725.23	0.00936545	-0.000398635	0
1735.23	0.00934635	-0.000338479	0
1745.23	0.00934635	-0.000312443	0
1755.23	0.00934635	-0.000310915	0
1765.23	0.00932727	-0.00027183	0
1775.23	0.00936545	-0.000318109	0
1785.23	0.00936545	-0.000310279	0
1795.23	0.00938454	-0.000282843	0
1805.23	0.00942272	-0.000289208	0
1815.23	0.00938454	-0.000350956	0
1825.23	0.00928908	-0.000298757	0
1835.23	0.00940363	-0.000302895	0
1845.23	0.00940363	-0.000321737	0
1855.23	0.00930818	-0.000289336	0
1860.05	0.00938454	-0.000401372	0