File: EXPERIMENTAL-DATA/Electrochemical-cycling/S-series/2024-06-27_S16_Icell_t1800_C0010_J01_deltaX-110,2mm_02_MB_C03.txt
time/s	Ewe/V	I/mA	error	Ece/V
60.053	2.91528	-0.0250202	0	-0.000632264
60.1432	0.00919998	-6.61505	0	-5.36732e-05
60.1436	0.00919998	-6.55913	0	6.08409e-05
60.144	0.00923816	-6.502	0	7.99266e-05
60.1444	0.00921907	-6.44741	0	0.000118098
60.1448	0.00927633	-6.39377	0	-0.000168187
60.1452	0.00929542	-6.34154	0	-7.27589e-05
60.1456	0.00923816	-6.29121	0	4.17552e-05
60.146	0.00933359	-6.24082	0	-1.55018e-05
60.1466	0.00939085	-6.16721	0	6.08409e-05
60.1472	0.00927633	-6.09722	0	-3.45875e-05
60.1478	0.00927633	-6.02838	0	-3.45875e-05
60.1484	0.00929542	-5.96247	0	-5.36732e-05
60.149	0.0091809	-5.89796	0	-1.55018e-05
60.1496	0.00923816	-5.83446	0	4.17552e-05
60.1502	0.00931451	-5.7737	0	7.99266e-05
60.1508	0.00925724	-5.71536	0	-5.36732e-05
60.1514	0.00923816	-5.65714	0	-3.45875e-05
60.152	0.00929542	-5.60141	0	7.99266e-05
60.1526	0.00929542	-5.54765	0	6.08409e-05
60.1532	0.00931451	-5.49427	0	-1.55018e-05
60.1538	0.00923816	-5.44279	0	7.99266e-05
60.1544	0.00931451	-5.3917	0	0.000213526
60.1552	0.00931451	-5.32744	0	-3.45875e-05
60.156	0.00925724	-5.26376	0	6.08409e-05
60.1568	0.00933359	-5.20325	0	2.26695e-05
60.1576	0.00931451	-5.14516	0	-5.36732e-05
60.1584	0.00923816	-5.08714	0	2.26695e-05
60.1592	0.00927633	-5.03102	0	2.26695e-05
60.16	0.00933359	-4.97624	0	9.90123e-05
60.1608	0.00916181	-4.92401	0	0.000118098
60.1616	0.00914272	-4.87279	0	3.58385e-06
60.1624	0.00931451	-4.82228	0	4.17552e-05
60.1634	0.00919998	-4.76241	0	7.99266e-05
60.1644	0.00933359	-4.704	0	-0.00011093
60.1654	0.00937177	-4.64674	0	4.17552e-05
60.1664	0.00929542	-4.5912	0	6.08409e-05
60.1674	0.00923816	-4.53686	0	3.58385e-06
60.1684	0.00939085	-4.48545	0	3.58385e-06
60.1694	0.00927633	-4.43456	0	6.08409e-05
60.1706	0.0091809	-4.37583	0	6.08409e-05
60.1718	0.00935268	-4.31851	0	0.000137184
60.173	0.00940994	-4.26245	0	-5.36732e-05
60.1742	0.00927633	-4.2085	0	0.000118098
60.1754	0.00933359	-4.15595	0	-7.27589e-05
60.1766	0.0094672	-4.10448	0	6.08409e-05
60.178	0.00925724	-4.0469	0	-7.27589e-05
60.1794	0.00929542	-3.99174	0	7.99266e-05
60.1808	0.00925724	-3.93658	0	-3.45875e-05
60.1822	0.00933359	-3.88402	0	4.17552e-05
60.1836	0.00933359	-3.83268	0	7.99266e-05
60.1852	0.00935268	-3.77529	0	0.000118098
60.1868	0.00929542	-3.72032	0	-5.36732e-05
60.1884	0.00925724	-3.66611	0	0.000118098
60.19	0.00929542	-3.61413	0	-9.18446e-05
60.1916	0.00927633	-3.564	0	-3.45875e-05
60.1934	0.00933359	-3.50864	0	0.000118098
60.1952	0.00927633	-3.45533	0	9.90123e-05
60.197	0.00929542	-3.40239	0	-1.55018e-05
60.199	0.00914272	-3.34634	0	2.26695e-05
60.201	0.00931451	-3.29277	0	6.08409e-05
60.203	0.00942903	-3.2406	0	0.000118098
60.205	0.00935268	-3.18843	0	4.17552e-05
60.2072	0.00933359	-3.13428	0	0.000118098
60.2094	0.00933359	-3.08211	0	4.17552e-05
60.2116	0.00927633	-3.03121	0	3.58385e-06
60.214	0.00931451	-2.97726	0	-5.36732e-05
60.2164	0.00925724	-2.92439	0	4.17552e-05
60.2188	0.00927633	-2.87419	0	-1.55018e-05
60.2214	0.00927633	-2.82228	0	3.58385e-06
60.224	0.00933359	-2.76991	0	4.17552e-05
60.2268	0.00925724	-2.71653	0	7.99266e-05
60.2296	0.00923816	-2.66538	0	-3.45875e-05
60.2324	0.00923816	-2.61505	0	2.26695e-05
60.2354	0.00925724	-2.56339	0	-3.45875e-05
60.2386	0.00931451	-2.51141	0	4.17552e-05
60.2418	0.00933359	-2.45956	0	2.26695e-05
60.2452	0.00937177	-2.40739	0	0.000118098
60.2488	0.00927633	-2.35464	0	9.90123e-05
60.2524	0.00937177	-2.304	0	-9.18446e-05
60.256	0.00921907	-2.25367	0	9.90123e-05
60.26	0.00937177	-2.20201	0	3.58385e-06
60.264	0.00927633	-2.15156	0	-7.27589e-05
60.2682	0.00931451	-2.09939	0	-1.55018e-05
60.2726	0.00939085	-2.049	0	-3.45875e-05
60.2772	0.00929542	-1.99823	0	-5.36732e-05
60.282	0.00935268	-1.94745	0	3.58385e-06
60.287	0.00939085	-1.89605	0	-1.55018e-05
60.2922	0.00929542	-1.84604	0	6.08409e-05
60.2976	0.00927633	-1.79552	0	9.90123e-05
60.3034	0.00929542	-1.74526	0	-0.00011093
60.3094	0.00921907	-1.69462	0	4.17552e-05
60.3158	0.00923816	-1.64378	0	2.26695e-05
60.3224	0.00933359	-1.59365	0	-1.55018e-05
60.3294	0.00929542	-1.54306	0	-5.36732e-05
60.337	0.00929542	-1.49159	0	-5.36732e-05
60.3448	0.00929542	-1.44139	0	6.08409e-05
60.3532	0.00937177	-1.39069	0	6.08409e-05
60.362	0.00923816	-1.34036	0	6.08409e-05
60.3716	0.00931451	-1.28883	0	2.26695e-05
60.3818	0.00927633	-1.2385	0	2.26695e-05
60.3924	0.00931451	-1.18836	0	2.26695e-05
60.404	0.00937177	-1.13778	0	0.000118098
60.4164	0.00931451	-1.08695	0	-0.000130016
60.43	0.00933359	-1.0365	0	-3.45875e-05
60.4446	0.00933359	-0.98617	0	-5.36732e-05
60.4604	0.00927633	-0.935589	0	7.99266e-05
60.478	0.00933359	-0.885518	0	0.000137184
60.4974	0.00929542	-0.835128	0	4.17552e-05
60.5188	0.00937177	-0.784357	0	-7.27589e-05
60.543	0.00923816	-0.73403	0	-9.18446e-05
60.5702	0.00927633	-0.683514	0	3.58385e-06
60.601	0.00931451	-0.633251	0	-3.45875e-05
60.6372	0.00929542	-0.582607	0	6.08409e-05
60.6788	0.00925724	-0.532281	0	4.17552e-05
60.7288	0.00919998	-0.482146	0	0.000156269
60.789	0.00925724	-0.431692	0	-3.45875e-05
60.8744	0.00919998	-0.376745	0	-1.55018e-05
60.9708	0.00935268	-0.326722	0	0.000194441
61.1	0.00935268	-0.276642	0	-5.36732e-05
61.279	0.00935268	-0.226568	0	4.17552e-05
61.549	0.00933359	-0.176532	0	6.08409e-05
62.0156	0.00931451	-0.126522	0	3.58385e-06
63.0314	0.00919998	-0.0764608	0	3.58385e-06
67.5172	0.00931451	-0.0264468	0	-3.45875e-05
77.5172	0.00931451	-0.0109329	0	4.17552e-05
87.5172	0.00929542	-0.0071179	0	2.26695e-05
97.5172	0.00929542	-0.00533702	0	4.17552e-05
107.517	0.00935268	-0.00420486	0	-3.45875e-05
117.517	0.00937177	-0.00350475	0	4.17552e-05
127.517	0.00933359	-0.00296038	0	4.17552e-05
137.517	0.00927633	-0.00263439	0	-1.55018e-05
147.517	0.00935268	-0.00233099	0	4.17552e-05
157.517	0.00919998	-0.00214603	0	7.99266e-05
167.517	0.00925724	-0.00197476	0	-5.36732e-05
177.517	0.00923816	-0.00178745	0	-1.55018e-05
187.517	0.00923816	-0.00168428	0	-5.36732e-05
197.517	0.00919998	-0.00179515	0	3.58385e-06
207.517	0.00929542	-0.00156462	0	7.99266e-05
217.517	0.00935268	-0.00133467	0	6.08409e-05
227.517	0.00933359	-0.00131678	0	2.26695e-05
237.517	0.00931451	-0.00124257	0	2.26695e-05
247.517	0.00923816	-0.00126555	0	4.17552e-05
257.517	0.00916181	-0.00107716	0	-3.45875e-05
267.517	0.00925724	-0.00108327	0	7.99266e-05
277.517	0.00929542	-0.00111471	0	-3.45875e-05
287.517	0.00927633	-0.00108511	0	7.99266e-05
297.517	0.00933359	-0.000976023	0	4.17552e-05
307.517	0.00933359	-0.000920078	0	6.08409e-05
317.517	0.00919998	-0.00115659	0	2.26695e-05
327.517	0.00914272	-0.000925042	0	0.000118098
337.517	0.00929542	-0.000917086	0	7.99266e-05
347.517	0.00935268	-0.000983469	0	-5.36732e-05
357.517	0.00912363	-0.000935162	0	7.99266e-05
367.517	0.0091809	-0.000914222	0	9.90123e-05
377.517	0.00916181	-0.000796222	0	6.08409e-05
387.517	0.00925724	-0.000866169	0	2.26695e-05
397.517	0.00925724	-0.000808378	0	6.08409e-05
407.517	0.00931451	-0.00078623	0	6.08409e-05
417.517	0.00927633	-0.00079775	0	-0.00011093
427.517	0.00921907	-0.000766181	0	0.000156269
437.517	0.00935268	-0.000758544	0	2.26695e-05
447.517	0.00939085	-0.000743587	0	-3.45875e-05
457.517	0.00929542	-0.000776364	0	4.17552e-05
467.517	0.00935268	-0.000852804	0	0.000194441
477.517	0.00925724	-0.00070699	0	-3.45875e-05
487.517	0.00925724	-0.000782474	0	9.90123e-05
497.517	0.00935268	-0.000683696	0	7.99266e-05
507.517	0.00925724	-0.000677013	0	-5.36732e-05
517.517	0.00931451	-0.000706226	0	6.08409e-05
527.517	0.00925724	-0.000660974	0	0.000118098
537.517	0.00937177	-0.000661228	0	-1.55018e-05
547.517	0.00923816	-0.000628642	0	7.99266e-05
557.517	0.00927633	-0.000635515	0	2.26695e-05
567.517	0.00919998	-0.000634433	0	7.99266e-05
577.517	0.00935268	-0.000628323	0	2.26695e-05
587.517	0.00933359	-0.000631824	0	6.08409e-05
597.517	0.00927633	-0.000777065	0	6.08409e-05
607.517	0.00931451	-0.000577534	0	0.000156269
617.517	0.00935268	-0.000605729	0	0.000137184
627.517	0.00933359	-0.000625778	0	9.90123e-05
637.517	0.0091809	-0.000520698	0	4.17552e-05
647.517	0.00921907	-0.000520252	0	0.000118098
657.517	0.00929542	-0.000600765	0	0.000156269
667.517	0.00929542	-0.000567223	0	2.26695e-05
677.517	0.00931451	-0.000570469	0	-1.55018e-05
687.517	0.0094672	-0.000672176	0	-3.45875e-05
697.517	0.00923816	-0.000573779	0	4.17552e-05
707.517	0.00929542	-0.000564295	0	0.000137184
717.517	0.0091809	-0.000514651	0	9.90123e-05
727.517	0.00937177	-0.000602037	0	3.58385e-06
737.517	0.00925724	-0.000589372	0	2.26695e-05
747.517	0.00923816	-0.000487029	0	4.17552e-05
757.517	0.00933359	-0.000620431	0	6.08409e-05
767.517	0.00935268	-0.000549848	0	-5.36732e-05
777.517	0.0091809	-0.000478627	0	3.58385e-06
787.517	0.00935268	-0.00058288	0	9.90123e-05
797.517	0.00939085	-0.000523434	0	6.08409e-05
807.517	0.00923816	-0.000487283	0	6.08409e-05
817.517	0.00933359	-0.00050154	0	-3.45875e-05
827.517	0.00931451	-0.000463161	0	3.58385e-06
837.517	0.00925724	-0.00054622	0	0.000175355
847.517	0.00940994	-0.000505104	0	7.99266e-05
857.517	0.00931451	-0.000547747	0	0.000137184
867.517	0.00929542	-0.000413836	0	4.17552e-05
877.517	0.00927633	-0.000520698	0	7.99266e-05
887.517	0.00925724	-0.000579507	0	-1.55018e-05
897.517	0.00929542	-0.000423001	0	7.99266e-05
907.517	0.00931451	-0.000430002	0	6.08409e-05
917.517	0.00919998	-0.000533809	0	4.17552e-05
927.517	0.00925724	-0.00046157	0	3.58385e-06
937.517	0.00931451	-0.000616294	0	3.58385e-06
947.517	0.00929542	-0.000502177	0	0.000118098
957.517	0.00927633	-0.00046628	0	2.26695e-05
967.517	0.00923816	-0.000411863	0	9.90123e-05
977.517	0.00933359	-0.000446041	0	2.26695e-05
987.517	0.00931451	-0.000560413	0	-3.45875e-05
997.517	0.00921907	-0.000410844	0	6.08409e-05
1007.52	0.00921907	-0.000398879	0	0.000156269
1017.52	0.00927633	-0.000480219	0	4.17552e-05
1027.52	0.00921907	-0.000387804	0	4.17552e-05
1037.52	0.00925724	-0.000457497	0	0.000118098
1047.52	0.00933359	-0.000419373	0	2.26695e-05
1057.52	0.0091809	-0.000420646	0	6.08409e-05
1067.52	0.00927633	-0.00044655	0	4.17552e-05
1077.52	0.00935268	-0.000567541	0	6.08409e-05
1087.52	0.00925724	-0.00045616	0	-1.55018e-05
1097.52	0.00935268	-0.000451578	0	6.08409e-05
1107.52	0.00923816	-0.000445722	0	3.58385e-06
1117.52	0.0091809	-0.000440631	0	-5.36732e-05
1127.52	0.00935268	-0.000382713	0	-9.18446e-05
1137.52	0.00933359	-0.000446804	0	3.58385e-06
1147.52	0.00923816	-0.000399452	0	0.000118098
1157.52	0.00929542	-0.000504404	0	7.99266e-05
1167.52	0.00929542	-0.000382203	0	3.58385e-06
1177.52	0.0091809	-0.000436112	0	0.000118098
1187.52	0.00935268	-0.000376603	0	0.000156269
1197.52	0.00929542	-0.000414345	0	3.58385e-06
1207.52	0.00933359	-0.000477418	0	2.26695e-05
1217.52	0.00931451	-0.000389777	0	6.08409e-05
1227.52	0.00927633	-0.000495048	0	3.58385e-06
1237.52	0.00927633	-0.00039436	0	7.99266e-05
1247.52	0.00925724	-0.000431275	0	9.90123e-05
1257.52	0.0091809	-0.000326513	0	3.58385e-06
1267.52	0.00925724	-0.000346307	0	3.58385e-06
1277.52	0.00931451	-0.000364701	0	-1.55018e-05
1287.52	0.00935268	-0.000358082	0	0.000156269
1297.52	0.00931451	-0.000494794	0	-5.36732e-05
1307.52	0.00933359	-0.000418927	0	0.000118098
1317.52	0.0091809	-0.000343952	0	4.17552e-05
1327.52	0.00931451	-0.000347325	0	9.90123e-05
1337.52	0.00933359	-0.000342297	0	6.08409e-05
1347.52	0.00927633	-0.000406898	0	0.000118098
1357.52	0.00927633	-0.000363873	0	6.08409e-05
1367.52	0.00925724	-0.000382267	0	3.58385e-06
1377.52	0.00937177	-0.000402698	0	6.08409e-05
1387.52	0.00927633	-0.000341661	0	-7.27589e-05
1397.52	0.00927633	-0.000371956	0	3.58385e-06
1407.52	0.00925724	-0.000300673	0	0.000118098
1417.52	0.00927633	-0.000325495	0	9.90123e-05
1427.52	0.00916181	-0.000424465	0	6.08409e-05
1437.52	0.00923816	-0.000416381	0	2.26695e-05
1447.52	0.00925724	-0.000361137	0	2.26695e-05
1457.52	0.00921907	-0.000310983	0	4.17552e-05
1467.52	0.00929542	-0.000409762	0	2.26695e-05
1477.52	0.00935268	-0.000370811	0	9.90123e-05
1487.52	0.00939085	-0.000343761	0	9.90123e-05
1497.52	0.00921907	-0.000320085	0	7.99266e-05
1507.52	0.00925724	-0.000398561	0	2.26695e-05
1517.52	0.00933359	-0.000315375	0	7.99266e-05
1527.52	0.00925724	-0.000511724	0	0.000175355
1537.52	0.00919998	-0.00036992	0	6.08409e-05
1547.52	0.00929542	-0.000381376	0	6.08409e-05
1557.52	0.00933359	-0.000326513	0	0.000175355
1567.52	0.00925724	-0.000342806	0	3.58385e-06
1577.52	0.00939085	-0.000314102	0	3.58385e-06
1587.52	0.00933359	-0.000290935	0	0.000118098
1597.52	0.00923816	-0.000382776	0	6.08409e-05
1607.52	0.00931451	-0.000390541	0	0.000137184
1617.52	0.00931451	-0.000310601	0	-5.36732e-05
1627.52	0.00933359	-0.000358845	0	-9.18446e-05
1637.52	0.00923816	-0.000408935	0	3.58385e-06
1647.52	0.00929542	-0.000340197	0	9.90123e-05
1657.52	0.00929542	-0.000313911	0	6.08409e-05
1667.52	0.00937177	-0.000299909	0	-3.45875e-05
1677.52	0.00923816	-0.000543037	0	4.17552e-05
1687.52	0.00935268	-0.000364001	0	3.58385e-06
1697.52	0.00929542	-0.000293735	0	6.08409e-05
1707.52	0.00937177	-0.000457433	0	7.99266e-05
1717.52	0.00935268	-0.000293608	0	3.58385e-06
1727.52	0.00925724	-0.000314102	0	4.17552e-05
1737.52	0.00931451	-0.000268213	0	7.99266e-05
1747.52	0.00923816	-0.000358845	0	4.17552e-05
1757.52	0.00919998	-0.000300927	0	0.000156269
1767.52	0.00923816	-0.000314357	0	4.17552e-05
1777.52	0.00927633	-0.000296472	0	-1.55018e-05
1787.52	0.00944812	-0.000430766	0	2.26695e-05
1797.52	0.00929542	-0.000306274	0	-3.45875e-05
1807.52	0.00921907	-0.000278206	0	3.58385e-06
1817.52	0.00925724	-0.0003591	0	3.58385e-06
1827.52	0.00925724	-0.00025192	0	4.17552e-05
1837.52	0.00925724	-0.000284252	0	2.26695e-05
1847.52	0.00919998	-0.000258921	0	7.99266e-05
1857.52	0.00927633	-0.00031162	0	-9.18446e-05
1860.05	0.00937177	-0.000310092	0	0.000118098