File: EXPERIMENTAL-DATA/Electrochemical-cycling/S-series/2024-07-04_S28_Icell_t1800_C0010_J01_deltaX-110,0mm_12mmLi-polished_02_MB_C05.txt
time/s	Ewe/V	I/mA	error	Ece/V
60.053	2.89691	-0.0250213	0	-0.000636973
60.1732	0.00924352	-32.6613	0	-2.6759e-05
60.1736	0.00933897	-32.583	0	-6.49344e-05
60.174	0.00924352	-32.4933	0	1.14163e-05
60.1744	0.00935806	-32.4137	0	6.86792e-05
60.1748	0.0092817	-32.3277	0	-0.000122197
60.1752	0.00916716	-32.2507	0	-0.00010311
60.1756	0.00933897	-32.1724	0	-8.4022e-05
60.176	0.00935806	-32.0858	0	-7.67139e-06
60.1764	0.00935806	-32.0005	0	-0.00010311
60.1768	0.0092817	-31.9254	0	3.05039e-05
60.1772	0.00930079	-31.8452	0	-2.6759e-05
60.1776	0.0092817	-31.7707	0	6.86792e-05
60.178	0.00931988	-31.693	0	-0.00010311
60.1784	0.00930079	-31.6153	0	6.86792e-05
60.1788	0.00922443	-31.5383	0	-4.58467e-05
60.1792	0.00920534	-31.4587	0	3.05039e-05
60.1796	0.00941533	-31.3785	0	0.000106855
60.18	0.00918625	-31.3085	0	6.86792e-05
60.1804	0.00924352	-31.2295	0	6.86792e-05
60.1808	0.00924352	-31.1582	0	6.86792e-05
60.1812	0.00931988	-31.0806	0	-7.67139e-06
60.1816	0.0092817	-31.008	0	-4.58467e-05
60.182	0.00931988	-30.9354	0	-6.49344e-05
60.1824	0.00933897	-30.8603	0	3.05039e-05
60.1828	0.00918625	-30.7883	0	-7.67139e-06
60.1832	0.00931988	-30.724	0	6.86792e-05
60.1836	0.00931988	-30.6464	0	0.000125942
60.184	0.00931988	-30.5719	0	-2.6759e-05
60.1844	0.00935806	-30.4999	0	8.77669e-05
60.1848	0.00930079	-30.4235	0	4.95916e-05
60.1852	0.00939624	-30.3573	0	3.05039e-05
60.1856	0.00933897	-30.2905	0	-2.6759e-05
60.186	0.00931988	-30.2179	0	1.14163e-05
60.1864	0.00926261	-30.1447	0	1.14163e-05
60.1868	0.00912898	-30.0779	0	4.95916e-05
60.1872	0.00930079	-30.0097	0	-7.67139e-06
60.1876	0.00931988	-29.9505	0	-7.67139e-06
60.188	0.00931988	-29.8748	0	0.00014503
60.1884	0.00926261	-29.8028	0	4.95916e-05
60.1888	0.0092817	-29.7443	0	1.14163e-05
60.1892	0.00931988	-29.6698	0	1.14163e-05
60.1896	0.00931988	-29.6112	0	3.05039e-05
60.19	0.00931988	-29.5412	0	-2.6759e-05
60.1904	0.00918625	-29.4762	0	3.05039e-05
60.1908	0.00931988	-29.4043	0	4.95916e-05
60.1912	0.00926261	-29.3489	0	0.000106855
60.1916	0.0092817	-29.2833	0	4.95916e-05
60.192	0.0092817	-29.2158	0	0.000202293
60.1924	0.00922443	-29.1566	0	-4.58467e-05
60.1928	0.00931988	-29.0898	0	-7.67139e-06
60.1932	0.00930079	-29.0331	0	3.05039e-05
60.1936	0.0092817	-28.9625	0	4.95916e-05
60.194	0.00930079	-28.9007	0	6.86792e-05
60.1944	0.00933897	-28.8345	0	1.14163e-05
60.1948	0.00941533	-28.7721	0	1.14163e-05
60.1952	0.00924352	-28.7174	0	1.14163e-05
60.1956	0.0092817	-28.6524	0	3.05039e-05
60.196	0.0092817	-28.5913	0	8.77669e-05
60.1964	0.00931988	-28.5283	0	-6.49344e-05
60.1968	0.00924352	-28.4742	0	-6.49344e-05
60.1972	0.0092817	-28.408	0	1.14163e-05
60.1976	0.00941533	-28.3475	0	-4.58467e-05
60.198	0.00922443	-28.2902	0	-7.67139e-06
60.1984	0.0092817	-28.2284	0	-8.4022e-05
60.1988	0.00931988	-28.1749	0	-0.000122197
60.1992	0.00922443	-28.1151	0	1.14163e-05
60.1996	0.00930079	-28.054	0	3.05039e-05
60.2	0.00935806	-27.9973	0	6.86792e-05
60.2004	0.00931988	-27.9381	0	6.86792e-05
60.2008	0.0092817	-27.877	0	-2.6759e-05
60.2012	0.0092817	-27.8152	0	3.05039e-05
60.2018	0.00922443	-27.7344	0	4.95916e-05
60.2022	0.00930079	-27.6758	0	-7.67139e-06
60.2026	0.00935806	-27.6217	0	-4.58467e-05
60.203	0.00926261	-27.565	0	0.000125942
60.2034	0.00930079	-27.5097	0	1.14163e-05
60.2038	0.00935806	-27.4562	0	-4.58467e-05
60.2042	0.00930079	-27.397	0	-7.67139e-06
60.2048	0.00926261	-27.3072	0	8.77669e-05
60.2054	0.00941533	-27.2283	0	6.86792e-05
60.206	0.0092817	-27.1436	0	1.14163e-05
60.2064	0.00922443	-27.0876	0	-8.4022e-05
60.207	0.00935806	-27.0124	0	-2.6759e-05
60.2074	0.00930079	-26.959	0	0.000125942
60.208	0.0092817	-26.8807	0	1.14163e-05
60.2086	0.00930079	-26.8011	0	3.05039e-05
60.209	0.00922443	-26.7431	0	-4.58467e-05
60.2094	0.00930079	-26.6871	0	0.00014503
60.21	0.00930079	-26.6145	0	1.14163e-05
60.2104	0.00924352	-26.5617	0	-6.49344e-05
60.2108	0.00926261	-26.5057	0	-7.67139e-06
60.2114	0.00931988	-26.4331	0	1.14163e-05
60.212	0.00926261	-26.3637	0	6.86792e-05
60.2124	0.00926261	-26.309	0	4.95916e-05
60.213	0.00918625	-26.2345	0	-0.000122197
60.2134	0.00931988	-26.181	0	-0.00010311
60.2138	0.00926261	-26.1301	0	-7.67139e-06
60.2144	0.00918625	-26.06	0	1.14163e-05
60.2148	0.00916716	-26.0053	0	-0.000122197
60.2154	0.00933897	-25.9282	0	0.000106855
60.2158	0.00933897	-25.878	0	-2.6759e-05
60.2164	0.00930079	-25.8092	0	4.95916e-05
60.217	0.00933897	-25.7353	0	3.05039e-05
60.2176	0.00935806	-25.666	0	-0.000122197
60.2182	0.00931988	-25.5864	0	-2.6759e-05
60.2188	0.00935806	-25.5208	0	6.86792e-05
60.2192	0.00914807	-25.4692	0	-2.6759e-05
60.2198	0.00930079	-25.3998	0	-4.58467e-05
60.2204	0.0092817	-25.3317	0	-7.67139e-06
60.221	0.00933897	-25.2591	0	-6.49344e-05
60.2216	0.0092817	-25.1929	0	-4.58467e-05
60.2222	0.00930079	-25.1223	0	3.05039e-05
60.2228	0.0092817	-25.0548	0	-4.58467e-05
60.2232	0.00935806	-25.0032	0	-2.6759e-05
60.2238	0.0092817	-24.9357	0	-2.6759e-05
60.2244	0.00939624	-24.8784	0	1.14163e-05
60.2248	0.00937715	-24.8262	0	3.05039e-05
60.2254	0.0092817	-24.7645	0	-0.00010311
60.2258	0.00931988	-24.7116	0	4.95916e-05
60.2264	0.00924352	-24.6486	0	-2.6759e-05
60.227	0.00939624	-24.5862	0	-7.67139e-06
60.2276	0.0092817	-24.5194	0	-0.000122197
60.228	0.00937715	-24.4691	0	6.86792e-05
60.2286	0.00924352	-24.408	0	-2.6759e-05
60.2292	0.00922443	-24.3443	0	-2.6759e-05
60.2298	0.00912898	-24.2794	0	3.05039e-05
60.2304	0.00924352	-24.2125	0	4.95916e-05
60.231	0.00931988	-24.1552	0	4.95916e-05
60.2316	0.00931988	-24.0877	0	3.05039e-05
60.2322	0.00933897	-24.0215	0	-6.49344e-05
60.2328	0.00922443	-23.961	0	8.77669e-05
60.2334	0.00924352	-23.9076	0	1.14163e-05
60.2338	0.00931988	-23.8566	0	4.95916e-05
60.2344	0.00933897	-23.7962	0	6.86792e-05
60.235	0.0092817	-23.7433	0	3.05039e-05
60.2356	0.00930079	-23.6752	0	-6.49344e-05
60.2362	0.0092817	-23.6134	0	-7.67139e-06
60.2368	0.00922443	-23.5561	0	4.95916e-05
60.2374	0.00930079	-23.4867	0	-2.6759e-05
60.238	0.00931988	-23.4352	0	3.05039e-05
60.2386	0.00930079	-23.3709	0	-4.58467e-05
60.2394	0.00922443	-23.2977	0	-6.49344e-05
60.24	0.00916716	-23.2397	0	4.95916e-05
60.2406	0.00933897	-23.1767	0	-0.000141285
60.2412	0.00914807	-23.1258	0	-7.67139e-06
60.2418	0.00924352	-23.064	0	-7.67139e-06
60.2424	0.00926261	-23.0067	0	-6.49344e-05
60.243	0.00922443	-22.9564	0	-8.4022e-05
60.2436	0.00918625	-22.8934	0	-4.58467e-05
60.2442	0.00933897	-22.8374	0	6.86792e-05
60.2448	0.0092817	-22.7814	0	-6.49344e-05
60.2454	0.00935806	-22.7241	0	-7.67139e-06
60.246	0.00931988	-22.6655	0	1.14163e-05
60.2466	0.00922443	-22.6152	0	8.77669e-05
60.2472	0.00931988	-22.5585	0	-4.58467e-05
60.2478	0.00922443	-22.5	0	-2.6759e-05
60.2484	0.00926261	-22.4484	0	6.86792e-05
60.249	0.0092817	-22.3943	0	-7.67139e-06
60.2496	0.00933897	-22.3351	0	1.14163e-05
60.2504	0.00930079	-22.2784	0	-4.58467e-05
60.251	0.00935806	-22.2211	0	-7.67139e-06
60.2516	0.00933897	-22.1632	0	-0.000160373
60.2524	0.00943442	-22.0938	0	3.05039e-05
60.253	0.0092817	-22.0359	0	1.14163e-05
60.2538	0.00926261	-21.9766	0	3.05039e-05
60.2544	0.00931988	-21.9206	0	-6.49344e-05
60.255	0.00920534	-21.8691	0	3.05039e-05
60.2556	0.00930079	-21.8181	0	-4.58467e-05
60.2564	0.00933897	-21.7449	0	0.00022138
60.2572	0.00931988	-21.687	0	-6.49344e-05
60.2578	0.00924352	-21.6316	0	-8.4022e-05
60.2584	0.00922443	-21.5807	0	0.000106855
60.259	0.00922443	-21.5297	0	-7.67139e-06
60.2598	0.00924352	-21.4622	0	-4.58467e-05
60.2606	0.00914807	-21.3922	0	-4.58467e-05
60.2614	0.00930079	-21.333	0	4.95916e-05
60.2622	0.00924352	-21.2725	0	-2.6759e-05
60.2628	0.00933897	-21.2165	0	3.05039e-05
60.2636	0.00916716	-21.1611	0	-6.49344e-05
60.2642	0.0092817	-21.1095	0	-2.6759e-05
60.265	0.00918625	-21.0516	0	6.86792e-05
60.2656	0.00930079	-20.9905	0	-8.4022e-05
60.2664	0.00926261	-20.9357	0	-0.00010311
60.2672	0.00930079	-20.8753	0	-7.67139e-06
60.268	0.0092817	-20.8116	0	-0.00010311
60.2686	0.00918625	-20.76	0	6.86792e-05
60.2694	0.00926261	-20.704	0	0.000106855
60.2702	0.00930079	-20.6384	0	8.77669e-05
60.271	0.00931988	-20.5818	0	1.14163e-05
60.2718	0.00930079	-20.5187	0	1.14163e-05
60.2726	0.00922443	-20.4589	0	8.77669e-05
60.2734	0.0092817	-20.3971	0	-7.67139e-06
60.2742	0.00922443	-20.3418	0	-7.67139e-06
60.275	0.0092817	-20.2794	0	6.86792e-05
60.2758	0.00935806	-20.2246	0	-7.67139e-06
60.2766	0.00926261	-20.1699	0	-7.67139e-06
60.2774	0.00933897	-20.1094	0	-0.000122197
60.2782	0.00926261	-20.0515	0	-2.6759e-05
60.279	0.00918625	-19.9954	0	-4.58467e-05
60.2798	0.00920534	-19.9451	0	3.05039e-05
60.2806	0.00939624	-19.8834	0	-7.67139e-06
60.2814	0.0092817	-19.8248	0	4.95916e-05
60.2824	0.00922443	-19.758	0	3.05039e-05
60.2832	0.0092817	-19.7051	0	-0.00010311
60.284	0.00933897	-19.6427	0	-7.67139e-06
60.2848	0.00939624	-19.5905	0	-6.49344e-05
60.2856	0.0092817	-19.5396	0	3.05039e-05
60.2864	0.00914807	-19.4861	0	1.14163e-05
60.2872	0.00924352	-19.4307	0	-6.49344e-05
60.2882	0.00922443	-19.3626	0	8.77669e-05
60.2892	0.00926261	-19.2977	0	1.14163e-05
60.2902	0.00926261	-19.234	0	3.05039e-05
60.291	0.0092817	-19.1831	0	0.000106855
60.2918	0.00926261	-19.1309	0	3.05039e-05
60.2926	0.00939624	-19.0761	0	6.86792e-05
60.2936	0.00926261	-19.0201	0	6.86792e-05
60.2944	0.00935806	-18.9628	0	1.14163e-05
60.2952	0.00930079	-18.9093	0	-2.6759e-05
60.296	0.00931988	-18.8565	0	1.14163e-05
60.297	0.00930079	-18.7998	0	-0.000160373
60.2978	0.00931988	-18.7476	0	1.14163e-05
60.2988	0.00930079	-18.6846	0	-4.58467e-05
60.2998	0.00935806	-18.6235	0	-0.000122197
60.3008	0.00930079	-18.5579	0	4.95916e-05
60.3018	0.00930079	-18.5057	0	-2.6759e-05
60.3026	0.00924352	-18.4554	0	-0.000198548
60.3034	0.00937715	-18.4026	0	-2.6759e-05
60.3044	0.00939624	-18.3504	0	-2.6759e-05
60.3054	0.0092817	-18.2899	0	-6.49344e-05
60.3062	0.00937715	-18.2396	0	-6.49344e-05
60.3072	0.00931988	-18.1753	0	3.05039e-05
60.3082	0.00922443	-18.1218	0	-4.58467e-05
60.3092	0.00924352	-18.0677	0	-7.67139e-06
60.3102	0.00937715	-18.0078	0	-4.58467e-05
60.311	0.00937715	-17.9576	0	-2.6759e-05
60.312	0.00933897	-17.9047	0	0.00014503
60.313	0.00930079	-17.8487	0	-2.6759e-05
60.314	0.00922443	-17.7908	0	3.05039e-05
60.315	0.00930079	-17.7335	0	-4.58467e-05
60.316	0.00926261	-17.68	0	6.86792e-05
60.317	0.0092817	-17.6208	0	-2.6759e-05
60.318	0.00931988	-17.5679	0	-7.67139e-06
60.319	0.00922443	-17.5164	0	3.05039e-05
60.32	0.00931988	-17.4552	0	-2.6759e-05
60.3212	0.0092817	-17.3992	0	0.000106855
60.3222	0.00920534	-17.3426	0	-6.49344e-05
60.3232	0.0092817	-17.2897	0	-2.6759e-05
60.3242	0.00933897	-17.2394	0	3.05039e-05
60.3252	0.00933897	-17.1847	0	-8.4022e-05
60.3262	0.00926261	-17.1286	0	-6.49344e-05
60.3272	0.00935806	-17.0752	0	3.05039e-05
60.3284	0.00937715	-17.0115	0	4.95916e-05
60.3296	0.00920534	-16.9561	0	-7.67139e-06
60.3306	0.00920534	-16.9058	0	-4.58467e-05
60.3318	0.00926261	-16.8415	0	-7.67139e-06
60.333	0.00924352	-16.7785	0	-4.58467e-05
60.3342	0.00931988	-16.7161	0	-0.00010311
60.3354	0.00926261	-16.6626	0	-2.6759e-05
60.3364	0.00926261	-16.6123	0	-7.67139e-06
60.3376	0.00924352	-16.5614	0	-4.58467e-05
60.3388	0.00926261	-16.4901	0	-0.00010311
60.3402	0.00922443	-16.4303	0	-0.00010311
60.3414	0.00926261	-16.38	0	-4.58467e-05
60.3424	0.00935806	-16.3239	0	-4.58467e-05
60.3436	0.00933897	-16.2641	0	6.86792e-05
60.3448	0.00935806	-16.2093	0	6.86792e-05
60.3462	0.0092817	-16.1508	0	1.14163e-05
60.3472	0.00924352	-16.0967	0	-0.000122197
60.3482	0.00926261	-16.0464	0	6.86792e-05
60.3496	0.00933897	-15.9891	0	-4.58467e-05
60.3508	0.00922443	-15.9292	0	-6.49344e-05
60.352	0.00931988	-15.877	0	-0.00010311
60.3534	0.00926261	-15.8146	0	-6.49344e-05
60.3548	0.0092817	-15.7586	0	-6.49344e-05
60.356	0.00937715	-15.7026	0	-8.4022e-05
60.3572	0.00924352	-15.6491	0	-4.58467e-05
60.3584	0.00912898	-15.5944	0	4.95916e-05
60.3596	0.00916716	-15.5409	0	-2.6759e-05
60.3608	0.00935806	-15.4861	0	-0.00010311
60.3622	0.00918625	-15.4326	0	-7.67139e-06
60.3634	0.0092817	-15.3785	0	3.05039e-05
60.3646	0.00933897	-15.3251	0	6.86792e-05
60.3658	0.00924352	-15.2678	0	1.14163e-05
60.3674	0.00926261	-15.2073	0	1.14163e-05
60.3688	0.00933897	-15.1544	0	-4.58467e-05
60.3702	0.00918625	-15.0997	0	-8.4022e-05
60.3714	0.00931988	-15.0462	0	-7.67139e-06
60.3728	0.00926261	-14.9845	0	-0.00010311
60.3742	0.0092817	-14.9291	0	1.14163e-05
60.3754	0.00924352	-14.8756	0	8.77669e-05
60.377	0.00930079	-14.817	0	-4.58467e-05
60.3784	0.0092817	-14.7648	0	-6.49344e-05
60.3798	0.0092817	-14.7056	0	-4.58467e-05
60.3812	0.00933897	-14.6477	0	3.05039e-05
60.3826	0.00931988	-14.5974	0	0.000125942
60.384	0.0092817	-14.5464	0	1.14163e-05
60.3854	0.00926261	-14.493	0	-0.000122197
60.3868	0.00924352	-14.4369	0	6.86792e-05
60.3882	0.00922443	-14.3828	0	-2.6759e-05
60.3896	0.00930079	-14.3294	0	-2.6759e-05
60.3912	0.00926261	-14.2727	0	1.14163e-05
60.3924	0.00931988	-14.2199	0	1.14163e-05
60.3938	0.00930079	-14.1676	0	-7.67139e-06
60.3954	0.00937715	-14.1174	0	6.86792e-05
60.3968	0.00931988	-14.0588	0	-4.58467e-05
60.3984	0.00931988	-14.004	0	1.14163e-05
60.3998	0.00931988	-13.9512	0	-2.6759e-05
60.4014	0.00935806	-13.899	0	1.14163e-05
60.4028	0.0092817	-13.8461	0	-2.6759e-05
60.4042	0.00931988	-13.7939	0	4.95916e-05
60.4058	0.00937715	-13.7411	0	-6.49344e-05
60.4074	0.00922443	-13.6889	0	-8.4022e-05
60.409	0.00926261	-13.631	0	-8.4022e-05
60.4104	0.00930079	-13.5794	0	-8.4022e-05
60.412	0.00930079	-13.5272	0	-7.67139e-06
60.4134	0.0092817	-13.4769	0	6.86792e-05
60.415	0.0092817	-13.4266	0	4.95916e-05
60.4166	0.0092817	-13.3719	0	-0.000141285
60.418	0.00931988	-13.319	0	-7.67139e-06
60.4198	0.00924352	-13.2668	0	6.86792e-05
60.4212	0.00918625	-13.2152	0	1.14163e-05
60.4228	0.00930079	-13.1649	0	1.14163e-05
60.4246	0.0092817	-13.1115	0	-7.67139e-06
60.4262	0.00930079	-13.0548	0	6.86792e-05
60.4278	0.0092817	-13.0026	0	-4.58467e-05
60.4296	0.0092817	-12.9498	0	-6.49344e-05
60.4312	0.0092817	-12.8969	0	-4.58467e-05
60.433	0.00935806	-12.8364	0	-2.6759e-05
60.435	0.0092817	-12.7766	0	-4.58467e-05
60.4368	0.00926261	-12.7225	0	-2.6759e-05
60.4386	0.00937715	-12.6645	0	-2.6759e-05
60.4404	0.00924352	-12.6117	0	-8.4022e-05
60.4422	0.00931988	-12.5576	0	-2.6759e-05
60.444	0.00937715	-12.5048	0	-6.49344e-05
60.4458	0.0092817	-12.4494	0	-4.58467e-05
60.448	0.00922443	-12.3921	0	-7.67139e-06
60.4496	0.00930079	-12.3386	0	1.14163e-05
60.4516	0.00939624	-12.2826	0	-6.49344e-05
60.4536	0.00922443	-12.2278	0	8.77669e-05
60.4554	0.00935806	-12.1769	0	8.77669e-05
60.457	0.00930079	-12.126	0	-4.58467e-05
60.4588	0.00930079	-12.075	0	-6.49344e-05
60.461	0.00937715	-12.0184	0	8.77669e-05
60.4628	0.00924352	-11.9655	0	1.14163e-05
60.4648	0.00937715	-11.912	0	1.14163e-05
60.4668	0.00930079	-11.856	0	-2.6759e-05
60.4686	0.00931988	-11.8045	0	-8.4022e-05
60.4708	0.00935806	-11.7522	0	-7.67139e-06
60.4728	0.0092817	-11.6924	0	-7.67139e-06
60.4752	0.00931988	-11.6377	0	3.05039e-05
60.477	0.00939624	-11.5829	0	-0.000141285
60.4792	0.00922443	-11.5301	0	0.000106855
60.481	0.00930079	-11.4766	0	-2.6759e-05
60.4834	0.00924352	-11.4225	0	3.05039e-05
60.4854	0.00924352	-11.3722	0	-0.000122197
60.4872	0.00939624	-11.3219	0	1.14163e-05
60.4896	0.00918625	-11.2684	0	-8.4022e-05
60.4916	0.00941533	-11.2181	0	-0.00010311
60.494	0.00930079	-11.164	0	-8.4022e-05
60.4958	0.00937715	-11.1137	0	3.05039e-05
60.498	0.00924352	-11.0609	0	-7.67139e-06
60.5002	0.00931988	-11.0106	0	6.86792e-05
60.5026	0.00924352	-10.9533	0	-6.49344e-05
60.5046	0.00918625	-10.9004	0	-4.58467e-05
60.507	0.00933897	-10.8501	0	-2.6759e-05
60.5094	0.00939624	-10.7935	0	-7.67139e-06
60.5116	0.00937715	-10.7406	0	-2.6759e-05
60.5142	0.00926261	-10.6872	0	4.95916e-05
60.5164	0.00930079	-10.6362	0	-4.58467e-05
60.5188	0.00926261	-10.5847	0	4.95916e-05
60.5212	0.00930079	-10.5293	0	0.000106855
60.5238	0.00926261	-10.4745	0	-0.00010311
60.5262	0.00937715	-10.4217	0	3.05039e-05
60.5288	0.0092817	-10.3682	0	-6.49344e-05
60.5312	0.0092817	-10.3141	0	-7.67139e-06
60.5338	0.00930079	-10.2632	0	3.05039e-05
60.536	0.00926261	-10.2129	0	-4.58467e-05
60.539	0.00924352	-10.16	0	-7.67139e-06
60.5414	0.00930079	-10.1059	0	-4.58467e-05
60.5442	0.00939624	-10.0499	0	-4.58467e-05
60.5468	0.00922443	-9.99831	0	-2.6759e-05
60.5496	0.00930079	-9.94356	0	6.86792e-05
60.5524	0.00922443	-9.88881	0	-7.67139e-06
60.5552	0.00926261	-9.83852	0	1.14163e-05
60.5574	0.00926261	-9.78822	0	4.95916e-05
60.5606	0.00926261	-9.73665	0	1.14163e-05
60.5636	0.00918625	-9.68318	0	3.05039e-05
60.566	0.00933897	-9.63161	0	1.14163e-05
60.569	0.00935806	-9.58004	0	1.14163e-05
60.572	0.00935806	-9.52911	0	4.95916e-05
60.5748	0.00922443	-9.47627	0	6.86792e-05
60.5778	0.00926261	-9.4247	0	4.95916e-05
60.5812	0.00924352	-9.37186	0	6.86792e-05
60.584	0.00939624	-9.31138	0	-2.6759e-05
60.5876	0.00931988	-9.26045	0	1.14163e-05
60.5904	0.00941533	-9.20761	0	-4.58467e-05
60.5936	0.00939624	-9.15477	0	-7.67139e-06
60.597	0.00931988	-9.1032	0	6.86792e-05
60.6002	0.00931988	-9.05163	0	-2.6759e-05
60.6034	0.00941533	-9.00134	0	3.05039e-05
60.6068	0.00922443	-8.9485	0	8.77669e-05
60.61	0.00926261	-8.89756	0	3.05039e-05
60.6132	0.00941533	-8.84536	0	-6.49344e-05
60.6168	0.00937715	-8.79316	0	-4.58467e-05
60.6204	0.00924352	-8.73904	0	1.14163e-05
60.6242	0.00924352	-8.68302	0	1.14163e-05
60.6274	0.00924352	-8.63018	0	-4.58467e-05
60.6318	0.00939624	-8.57606	0	-4.58467e-05
60.6356	0.00930079	-8.51622	0	-7.67139e-06
60.6394	0.00931988	-8.46465	0	1.14163e-05
60.643	0.00930079	-8.41372	0	-7.67139e-06
60.6468	0.00930079	-8.36215	0	1.14163e-05
60.651	0.00933897	-8.30549	0	3.05039e-05
60.6554	0.00924352	-8.24819	0	1.14163e-05
60.6596	0.00937715	-8.19726	0	6.86792e-05
60.6638	0.00924352	-8.14633	0	-0.000160373
60.6678	0.0092817	-8.0954	0	-2.6759e-05
60.6716	0.00918625	-8.04511	0	-4.58467e-05
60.676	0.00933897	-7.99099	0	-2.6759e-05
60.6806	0.00926261	-7.93752	0	-8.4022e-05
60.6854	0.00935806	-7.8834	0	6.86792e-05
60.6896	0.00930079	-7.83056	0	-4.58467e-05
60.6946	0.00935806	-7.7739	0	-7.67139e-06
60.6996	0.0092817	-7.72042	0	-7.67139e-06
60.7042	0.00930079	-7.6644	0	-2.6759e-05
60.7094	0.00926261	-7.60901	0	-4.58467e-05
60.7146	0.00933897	-7.55808	0	-6.49344e-05
60.7192	0.0092817	-7.50715	0	3.05039e-05
60.7246	0.0092817	-7.45558	0	-7.67139e-06
60.7294	0.00937715	-7.40529	0	-8.4022e-05
60.7338	0.00926261	-7.35308	0	6.86792e-05
60.7396	0.00916716	-7.30215	0	1.14163e-05
60.7448	0.0094726	-7.25186	0	-6.49344e-05
60.75	0.00933897	-7.19838	0	1.14163e-05
60.7558	0.00931988	-7.14681	0	-2.6759e-05
60.7616	0.00933897	-7.09588	0	-7.67139e-06
60.7666	0.00930079	-7.04559	0	4.95916e-05
60.7726	0.00939624	-6.9902	0	1.14163e-05
60.779	0.00930079	-6.93481	0	-0.00010311
60.7854	0.00935806	-6.88388	0	-2.6759e-05
60.7908	0.00918625	-6.82722	0	-2.6759e-05
60.7982	0.0092817	-6.77693	0	-4.58467e-05
60.8046	0.00930079	-6.72154	0	1.14163e-05
60.8106	0.00935806	-6.67124	0	-0.000141285
60.8176	0.00926261	-6.61777	0	-7.67139e-06
60.824	0.00930079	-6.56747	0	-4.58467e-05
60.8308	0.00924352	-6.51336	0	8.77669e-05
60.838	0.00935806	-6.45988	0	-4.58467e-05
60.8442	0.00937715	-6.40768	0	-0.00017946
60.8522	0.00924352	-6.35293	0	-4.58467e-05
60.8594	0.00943442	-6.30263	0	3.05039e-05
60.8672	0.00931988	-6.24724	0	-0.000122197
60.8754	0.00930079	-6.19631	0	-0.000160373
60.8824	0.00926261	-6.14602	0	-0.00010311
60.8906	0.00931988	-6.08936	0	1.14163e-05
60.899	0.00922443	-6.03524	0	3.05039e-05
60.9072	0.00933897	-5.98431	0	-6.49344e-05
60.915	0.00930079	-5.9302	0	0.000125942
60.9236	0.00930079	-5.87608	0	4.95916e-05
60.9328	0.00922443	-5.82579	0	-0.00010311
60.9416	0.0092817	-5.7755	0	4.95916e-05
60.9496	0.00935806	-5.72202	0	3.05039e-05
60.9594	0.00937715	-5.66918	0	1.14163e-05
60.9688	0.00926261	-5.61443	0	3.05039e-05
60.9784	0.00924352	-5.56413	0	-4.58467e-05
60.9876	0.00926261	-5.51002	0	-4.58467e-05
60.9976	0.00939624	-5.45718	0	-2.6759e-05
61.0078	0.00922443	-5.40561	0	4.95916e-05
61.0174	0.00931988	-5.35468	0	-6.49344e-05
61.0272	0.00933897	-5.30375	0	-0.000141285
61.0378	0.00931988	-5.25282	0	-2.6759e-05
61.0468	0.00931988	-5.20252	0	3.05039e-05
61.056	0.00931988	-5.14968	0	1.14163e-05
61.0696	0.00916716	-5.0962	0	8.77669e-05
61.0794	0.00931988	-5.04527	0	0.000125942
61.0912	0.00926261	-4.99434	0	-7.67139e-06
61.1018	0.00918625	-4.94405	0	-7.67139e-06
61.114	0.00926261	-4.89312	0	1.14163e-05
61.1252	0.0092817	-4.84219	0	3.05039e-05
61.1374	0.00924352	-4.78998	0	1.14163e-05
61.1492	0.00920534	-4.73969	0	-6.49344e-05
61.1612	0.00922443	-4.68939	0	1.14163e-05
61.1734	0.0094726	-4.63528	0	-2.6759e-05
61.1874	0.00931988	-4.58498	0	3.05039e-05
61.1996	0.00937715	-4.52896	0	-4.58467e-05
61.2132	0.00937715	-4.47739	0	-7.67139e-06
61.2272	0.00931988	-4.42455	0	-4.58467e-05
61.2406	0.00930079	-4.37298	0	8.77669e-05
61.255	0.00926261	-4.3176	0	1.14163e-05
61.269	0.00920534	-4.26348	0	-4.58467e-05
61.3052	0.00931988	-4.17313	0	-4.58467e-05
61.3196	0.00930079	-4.12266	0	3.05039e-05
61.3344	0.00924352	-4.07238	0	-4.58467e-05
61.3494	0.00922443	-4.02197	0	4.95916e-05
61.3648	0.00937715	-3.97188	0	-4.58467e-05
61.3806	0.00933897	-3.92154	0	1.14163e-05
61.3968	0.00935806	-3.87068	0	-7.67139e-06
61.4132	0.00933897	-3.82047	0	-4.58467e-05
61.4296	0.00926261	-3.77044	0	-0.00010311
61.4468	0.0092817	-3.71908	0	0.000125942
61.4644	0.0092817	-3.66772	0	6.86792e-05
61.4822	0.00922443	-3.61737	0	1.14163e-05
61.5002	0.00933897	-3.56735	0	-2.6759e-05
61.5186	0.00926261	-3.517	0	-7.67139e-06
61.5374	0.00922443	-3.46653	0	-4.58467e-05
61.5564	0.00922443	-3.41619	0	1.14163e-05
61.576	0.00922443	-3.36572	0	-7.67139e-06
61.5966	0.00930079	-3.31474	0	0.000125942
61.6168	0.00935806	-3.26439	0	-6.49344e-05
61.638	0.00924352	-3.21367	0	-0.000141285
61.6594	0.00930079	-3.16364	0	-8.4022e-05
61.6818	0.0092817	-3.11342	0	4.95916e-05
61.7042	0.00935806	-3.0627	0	3.05039e-05
61.7276	0.00931988	-3.01255	0	-4.58467e-05
61.7516	0.00935806	-2.96195	0	-6.49344e-05
61.776	0.0092817	-2.91186	0	-7.67139e-06
61.8012	0.00935806	-2.86101	0	-8.4022e-05
61.8276	0.00926261	-2.8106	0	6.86792e-05
61.8542	0.00939624	-2.75987	0	8.77669e-05
61.882	0.00931988	-2.7094	0	-7.67139e-06
61.9104	0.00933897	-2.65925	0	-0.00010311
61.9398	0.0092817	-2.60903	0	-7.67139e-06
61.9698	0.00924352	-2.55888	0	1.14163e-05
62.0012	0.00926261	-2.50853	0	-6.49344e-05
62.0338	0.00930079	-2.45806	0	-8.4022e-05
62.0678	0.00935806	-2.40797	0	1.14163e-05
62.103	0.00926261	-2.35725	0	-7.67139e-06
62.139	0.00935806	-2.30601	0	-0.00010311
62.1774	0.00918625	-2.25567	0	-8.4022e-05
62.217	0.00931988	-2.20475	0	0.000106855
62.2582	0.00935806	-2.15403	0	-2.6759e-05
62.3012	0.00937715	-2.104	0	-6.49344e-05
62.3462	0.00933897	-2.05334	0	-8.4022e-05
62.3924	0.00933897	-2.00319	0	-2.6759e-05
62.4422	0.00933897	-1.95316	0	3.05039e-05
62.4938	0.00930079	-1.9025	0	-4.58467e-05
62.548	0.00916716	-1.85234	0	4.95916e-05
62.6052	0.00912898	-1.80206	0	0.000183205
62.6644	0.0092817	-1.75178	0	-8.4022e-05
62.7282	0.00933897	-1.70169	0	1.14163e-05
62.7954	0.00922443	-1.65167	0	1.14163e-05
62.866	0.00924352	-1.60164	0	-6.49344e-05
62.941	0.00926261	-1.55143	0	-2.6759e-05
63.0222	0.00931988	-1.50121	0	3.05039e-05
63.108	0.00933897	-1.45106	0	1.14163e-05
63.201	0.00931988	-1.40097	0	4.95916e-05
63.3008	0.00926261	-1.35088	0	-7.67139e-06
63.4066	0.0092817	-1.3006	0	-7.67139e-06
63.521	0.0092817	-1.25032	0	-2.6759e-05
63.6466	0.00924352	-1.2001	0	8.77669e-05
63.7826	0.00931988	-1.14988	0	-7.67139e-06
63.9314	0.00920534	-1.09935	0	8.77669e-05
64.0938	0.00937715	-1.04932	0	-7.67139e-06
64.2722	0.00924352	-0.999106	0	8.77669e-05
64.4692	0.00930079	-0.94889	0	0.000106855
64.692	0.00930079	-0.898355	0	0.000125942
64.9382	0.00922443	-0.848329	0	-2.6759e-05
65.219	0.00926261	-0.798303	0	4.95916e-05
65.5314	0.00922443	-0.748023	0	1.14163e-05
65.895	0.00926261	-0.697806	0	-4.58467e-05
66.3138	0.00933897	-0.647717	0	-4.58467e-05
66.8032	0.00926261	-0.597564	0	-2.6759e-05
67.3866	0.00931988	-0.547347	0	-4.58467e-05
68.1	0.00935806	-0.497131	0	-2.6759e-05
68.9766	0.00926261	-0.446787	0	-0.00010311
70.1796	0.00930079	-0.396739	0	-2.6759e-05
71.6618	0.00933897	-0.346496	0	-8.4022e-05
73.7014	0.00931988	-0.296469	0	8.77669e-05
76.6274	0.00926261	-0.246232	0	-0.000141285
81.273	0.00924352	-0.196212	0	-6.49344e-05
89.8372	0.00935806	-0.146121	0	-6.49344e-05
99.8372	0.00924352	-0.116103	0	4.95916e-05
109.837	0.0092817	-0.0972846	0	-2.6759e-05
119.837	0.00926261	-0.0844931	0	3.05039e-05
129.837	0.00933897	-0.0753545	0	3.05039e-05
139.837	0.00922443	-0.0679596	0	1.14163e-05
149.837	0.0092817	-0.0618693	0	-6.49344e-05
159.837	0.00922443	-0.0571409	0	-6.49344e-05
169.837	0.00930079	-0.0527689	0	-6.49344e-05
179.837	0.00937715	-0.0491415	0	-6.49344e-05
189.837	0.00935806	-0.0461759	0	0.000125942
199.837	0.00937715	-0.0436233	0	6.86792e-05
209.837	0.00926261	-0.0410418	0	-6.49344e-05
219.837	0.00926261	-0.038823	0	3.05039e-05
229.837	0.00920534	-0.0366207	0	4.95916e-05
239.837	0.00931988	-0.0346635	0	6.86792e-05
249.837	0.00931988	-0.0327444	0	-4.58467e-05
259.837	0.00920534	-0.0309881	0	-6.49344e-05
269.837	0.0092817	-0.029398	0	8.77669e-05
279.837	0.00941533	-0.0280859	0	-7.67139e-06
289.837	0.00931988	-0.0267968	0	-2.6759e-05
299.837	0.00933897	-0.0256419	0	-2.6759e-05
309.837	0.00926261	-0.0244373	0	-2.6759e-05
319.837	0.00935806	-0.0233588	0	-4.58467e-05
329.837	0.0092817	-0.0224241	0	-4.58467e-05
339.837	0.00935806	-0.0215682	0	-2.6759e-05
349.837	0.00930079	-0.0206889	0	4.95916e-05
359.837	0.00926261	-0.0197338	0	1.14163e-05
369.837	0.00935806	-0.0191127	0	-4.58467e-05
379.837	0.00931988	-0.0182384	0	1.14163e-05
389.837	0.00935806	-0.0176454	0	0.000106855
399.837	0.00930079	-0.0169563	0	-2.6759e-05
409.837	0.00926261	-0.0163168	0	8.77669e-05
419.837	0.00937715	-0.0159032	0	4.95916e-05
429.837	0.0092817	-0.0154209	0	3.05039e-05
439.837	0.00922443	-0.0148304	0	-6.49344e-05
449.837	0.00930079	-0.0144289	0	-7.67139e-06
459.837	0.00933897	-0.0138823	0	-6.49344e-05
469.837	0.00933897	-0.0133834	0	-7.67139e-06
479.837	0.00935806	-0.0128521	0	-7.67139e-06
489.837	0.00933897	-0.0124849	0	-7.67139e-06
499.837	0.0092817	-0.0120637	0	-7.67139e-06
509.837	0.0092817	-0.0114929	0	-2.6759e-05
519.837	0.00926261	-0.0112225	0	1.14163e-05
529.837	0.0092817	-0.0108267	0	-7.67139e-06
539.837	0.00922443	-0.0104137	0	1.14163e-05
549.837	0.00941533	-0.0102279	0	-8.4022e-05
559.837	0.00926261	-0.00992633	0	1.14163e-05
569.837	0.00931988	-0.00957254	0	1.14163e-05
579.837	0.00926261	-0.0092843	0	-0.00010311
589.837	0.0092817	-0.00896869	0	-2.6759e-05
599.837	0.00931988	-0.00862508	0	-0.000122197
609.837	0.00937715	-0.00839474	0	-6.49344e-05
619.837	0.0092817	-0.00820384	0	-4.58467e-05
629.837	0.00916716	-0.00798241	0	0.00014503
639.837	0.00931988	-0.00777179	0	-0.000122197
649.837	0.00931988	-0.00761844	0	-8.4022e-05
659.837	0.00930079	-0.00733528	0	0.000106855
669.837	0.00937715	-0.0072322	0	4.95916e-05
679.837	0.00924352	-0.00710176	0	-6.49344e-05
689.837	0.00935806	-0.00695605	0	-4.58467e-05
699.837	0.00930079	-0.00673843	0	-0.000122197
709.837	0.00930079	-0.00656853	0	-0.00010311
719.837	0.0092817	-0.00645145	0	4.95916e-05
729.837	0.0092817	-0.00627774	0	-4.58467e-05
739.837	0.00931988	-0.00614284	0	-8.4022e-05
749.837	0.00922443	-0.00600476	0	-2.6759e-05
759.837	0.00935806	-0.00574006	0	-7.67139e-06
769.837	0.0092817	-0.0057057	0	0.000106855
779.837	0.00916716	-0.00560007	0	-7.67139e-06
789.837	0.00920534	-0.00547663	0	-4.58467e-05
799.837	0.00933897	-0.00538245	0	1.14163e-05
809.837	0.00935806	-0.00531246	0	-6.49344e-05
819.837	0.00922443	-0.00511902	0	-2.6759e-05
829.837	0.00933897	-0.00493704	0	-0.000160373
839.837	0.00924352	-0.00491031	0	1.14163e-05
849.837	0.00920534	-0.00480278	0	-6.49344e-05
859.837	0.0092817	-0.00478051	0	1.14163e-05
869.837	0.00926261	-0.00464306	0	4.95916e-05
879.837	0.00930079	-0.00440636	0	4.95916e-05
889.837	0.00926261	-0.00445087	0	3.05039e-05
899.837	0.00930079	-0.00440734	0	-4.58467e-05
909.837	0.00924352	-0.0043349	0	-2.6759e-05
919.837	0.00930079	-0.0042286	0	1.14163e-05
929.837	0.00931988	-0.00413032	0	-2.6759e-05
939.837	0.00924352	-0.00409836	0	1.14163e-05
949.837	0.00922443	-0.00404375	0	-4.58467e-05
959.837	0.0092817	-0.00394439	0	-6.49344e-05
969.837	0.00924352	-0.00390518	0	-6.49344e-05
979.837	0.00933897	-0.00382981	0	-7.67139e-06
989.837	0.00933897	-0.00376119	0	4.95916e-05
999.837	0.00930079	-0.00369022	0	-2.6759e-05
1009.84	0.00914807	-0.00362561	0	1.14163e-05
1019.84	0.00916716	-0.00360588	0	-4.58467e-05
1029.84	0.00922443	-0.00358004	0	3.05039e-05
1039.84	0.00930079	-0.00349614	0	-4.58467e-05
1049.84	0.00930079	-0.00342988	0	-4.58467e-05
1059.84	0.00933897	-0.003378	0	-0.000141285
1069.84	0.00931988	-0.00334789	0	-6.49344e-05
1079.84	0.00931988	-0.00331524	0	-6.49344e-05
1089.84	0.00926261	-0.00327246	0	1.14163e-05
1099.84	0.00922443	-0.00318456	0	6.86792e-05
1109.84	0.00922443	-0.00312683	0	-2.6759e-05
1119.84	0.00930079	-0.00308621	0	-0.00010311
1129.84	0.0092817	-0.00302606	0	-6.49344e-05
1139.84	0.00931988	-0.00299525	0	-2.6759e-05
1149.84	0.00933897	-0.00300117	0	-4.58467e-05
1159.84	0.00931988	-0.00292918	0	6.86792e-05
1169.84	0.00931988	-0.00289901	0	1.14163e-05
1179.84	0.0092817	-0.00286158	0	-6.49344e-05
1189.84	0.00930079	-0.00280283	0	-4.58467e-05
1199.84	0.00937715	-0.00278297	0	-7.67139e-06
1209.84	0.00933897	-0.00274841	0	-6.49344e-05
1219.84	0.00930079	-0.00272785	0	0.000125942
1229.84	0.00930079	-0.00268724	0	-6.49344e-05
1239.84	0.00926261	-0.00269137	0	0.000106855
1249.84	0.00937715	-0.00263523	0	-6.49344e-05
1259.84	0.00937715	-0.00261607	0	-2.6759e-05
1269.84	0.00931988	-0.00256069	0	0.000106855
1279.84	0.00931988	-0.00255999	0	1.14163e-05
1289.84	0.00930079	-0.00250347	0	3.05039e-05
1299.84	0.00924352	-0.0025071	0	3.05039e-05
1309.84	0.00931988	-0.00245261	0	-8.4022e-05
1319.84	0.00939624	-0.00238711	0	-7.67139e-06
1329.84	0.00933897	-0.00236725	0	-2.6759e-05
1339.84	0.00930079	-0.00238291	0	1.14163e-05
1349.84	0.0092817	-0.00234109	0	-6.49344e-05
1359.84	0.00931988	-0.00231168	0	-8.4022e-05
1369.84	0.00943442	-0.0023043	0	-2.6759e-05
1379.84	0.0092817	-0.00227152	0	-0.00010311
1389.84	0.00939624	-0.00224478	0	-0.00010311
1399.84	0.00931988	-0.00216394	0	-2.6759e-05
1409.84	0.00931988	-0.00216592	0	-4.58467e-05
1419.84	0.00933897	-0.00217687	0	4.95916e-05
1429.84	0.0092817	-0.00213734	0	-0.000122197
1439.84	0.00931988	-0.00213046	0	-4.58467e-05
1449.84	0.00931988	-0.0021318	0	4.95916e-05
1459.84	0.0092817	-0.0020691	0	1.14163e-05
1469.84	0.00924352	-0.00206032	0	1.14163e-05
1479.84	0.0092817	-0.00205382	0	6.86792e-05
1489.84	0.0092817	-0.00205198	0	-6.49344e-05
1499.84	0.00926261	-0.00202302	0	1.14163e-05
1509.84	0.00930079	-0.00199915	0	4.95916e-05
1519.84	0.00924352	-0.0020064	0	4.95916e-05
1529.84	0.00935806	-0.00197146	0	-0.000141285
1539.84	0.00926261	-0.00194339	0	6.86792e-05
1549.84	0.00926261	-0.00194409	0	-6.49344e-05
1559.84	0.00920534	-0.00191347	0	8.77669e-05
1569.84	0.00924352	-0.00188234	0	8.77669e-05
1579.84	0.00924352	-0.00184313	0	8.77669e-05
1589.84	0.00931988	-0.00184746	0	-8.4022e-05
1599.84	0.0092817	-0.00182849	0	-0.00010311
1609.84	0.0092817	-0.00182124	0	-0.000141285
1619.84	0.0092817	-0.00183034	0	-4.58467e-05
1629.84	0.00933897	-0.00177757	0	-4.58467e-05
1639.84	0.00920534	-0.00178024	0	3.05039e-05
1649.84	0.00930079	-0.00173409	0	1.14163e-05
1659.84	0.0092817	-0.00172932	0	6.86792e-05
1669.84	0.00941533	-0.00171831	0	6.86792e-05
1679.84	0.00933897	-0.00167038	0	1.14163e-05
1689.84	0.00930079	-0.00168209	0	-4.58467e-05
1699.84	0.0092817	-0.00167388	0	-8.4022e-05
1709.84	0.00931988	-0.00164778	0	1.14163e-05
1719.84	0.00943442	-0.00168553	0	-8.4022e-05
1729.84	0.00924352	-0.00167362	0	-4.58467e-05
1739.84	0.00931988	-0.0016418	0	-2.6759e-05
1749.84	0.00935806	-0.00164772	0	-2.6759e-05
1759.84	0.00926261	-0.00163416	0	-4.58467e-05
1769.84	0.00933897	-0.0016164	0	1.14163e-05
1779.84	0.00930079	-0.00157872	0	-8.4022e-05
1789.84	0.00931988	-0.00157337	0	-8.4022e-05
1799.84	0.00922443	-0.0015586	0	-6.49344e-05
1809.84	0.00922443	-0.00154969	0	-7.67139e-06
1819.84	0.00930079	-0.0015707	0	-4.58467e-05
1829.84	0.0092817	-0.00150571	0	-7.67139e-06
1839.84	0.00931988	-0.00153015	0	6.86792e-05
1849.84	0.00924352	-0.00147554	0	-0.00017946
1859.84	0.00922443	-0.00148782	0	1.14163e-05
1860.05	0.00945351	-0.00148871	0	-2.6759e-05