File: EXPERIMENTAL-DATA/Electrochemical-cycling/S-series/2024-07-04_S29_Icell_t1800_C0010_J01_deltaX-109,9mm_12mmLi-polished_02_MB_C06.txt
time/s	Ewe/V	I/mA	error	Ece/V
60.053	2.94401	-0.0250234	0	-0.000717916
60.1732	0.00929399	-36.7793	0	-3.25942e-05
60.1734	0.00935127	-36.7214	0	4.37646e-05
60.1736	0.00925581	-36.6526	0	5.58521e-06
60.174	0.00925581	-36.5374	0	5.58521e-06
60.1742	0.00933218	-36.4795	0	-3.25942e-05
60.1744	0.00938945	-36.4279	0	-7.07736e-05
60.1746	0.00931308	-36.3662	0	-5.16839e-05
60.1748	0.00931308	-36.3159	0	-0.000147132
60.175	0.00931308	-36.2528	0	-3.25942e-05
60.1752	0.00935127	-36.1968	0	2.46749e-05
60.1754	0.00931308	-36.1383	0	6.28543e-05
60.1756	0.0092749	-36.0854	0	-0.000108953
60.1758	0.00921763	-36.0275	0	0.000177393
60.176	0.00937036	-35.9772	0	-0.000147132
60.1762	0.00933218	-35.9174	0	-7.07736e-05
60.1764	0.00933218	-35.8613	0	-5.16839e-05
60.1766	0.00933218	-35.8002	0	-8.98633e-05
60.1768	0.00938945	-35.7499	0	-0.000108953
60.177	0.00933218	-35.6952	0	4.37646e-05
60.1772	0.00931308	-35.6436	0	-7.07736e-05
60.1774	0.00929399	-35.5882	0	-5.16839e-05
60.1776	0.0092749	-35.5328	0	-0.000108953
60.1778	0.00921763	-35.4787	0	6.28543e-05
60.178	0.00933218	-35.4284	0	0.000120123
60.1782	0.00921763	-35.3718	0	2.46749e-05
60.1786	0.00931308	-35.2699	0	-5.16839e-05
60.179	0.00931308	-35.1623	0	-1.35045e-05
60.1794	0.00933218	-35.0554	0	6.28543e-05
60.1796	0.00925581	-35.0026	0	-7.07736e-05
60.18	0.00935127	-34.9103	0	-0.000108953
60.1802	0.0092749	-34.8581	0	6.28543e-05
60.1804	0.00933218	-34.8001	0	-0.000108953
60.1808	0.00937036	-34.7008	0	-5.16839e-05
60.1812	0.00923672	-34.6091	0	-3.25942e-05
60.1814	0.0092749	-34.5531	0	-0.000185312
60.1818	0.00942764	-34.4564	0	-0.000108953
60.1822	0.00933218	-34.3672	0	2.46749e-05
60.1824	0.00925581	-34.308	0	-1.35045e-05
60.1828	0.00931308	-34.2106	0	-7.07736e-05
60.1832	0.00921763	-34.117	0	-1.35045e-05
60.1836	0.00931308	-34.0286	0	-1.35045e-05
60.1838	0.00931308	-33.9776	0	-1.35045e-05
60.1842	0.00940854	-33.8802	0	-0.000128043
60.1846	0.00942764	-33.7828	0	-1.35045e-05
60.185	0.00938945	-33.695	0	2.46749e-05
60.1854	0.00935127	-33.609	0	5.58521e-06
60.1858	0.0092749	-33.5174	0	-1.35045e-05
60.1862	0.00933218	-33.427	0	4.37646e-05
60.1866	0.00937036	-33.3366	0	2.46749e-05
60.187	0.00923672	-33.25	0	2.46749e-05
60.1874	0.00923672	-33.1647	0	5.58521e-06
60.1878	0.00942764	-33.0743	0	-7.07736e-05
60.1882	0.0092749	-32.9839	0	-0.000108953
60.1886	0.00929399	-32.898	0	-8.98633e-05
60.189	0.00929399	-32.8165	0	-0.000108953
60.1894	0.00933218	-32.735	0	6.28543e-05
60.1898	0.00940854	-32.6465	0	5.58521e-06
60.1902	0.00929399	-32.5682	0	-3.25942e-05
60.1906	0.00919853	-32.4848	0	5.58521e-06
60.191	0.00933218	-32.3976	0	-1.35045e-05
60.1914	0.00933218	-32.3301	0	-5.16839e-05
60.1918	0.00929399	-32.2499	0	-3.25942e-05
60.1922	0.00931308	-32.1633	0	-5.16839e-05
60.1926	0.00942764	-32.0863	0	2.46749e-05
60.193	0.00929399	-32.0131	0	2.46749e-05
60.1932	0.00933218	-31.9609	0	-0.000147132
60.1936	0.00925581	-31.8928	0	5.58521e-06
60.194	0.00921763	-31.8106	0	-0.000108953
60.1944	0.00933218	-31.7406	0	5.58521e-06
60.1948	0.00929399	-31.6579	0	5.58521e-06
60.1952	0.00923672	-31.5866	0	6.28543e-05
60.1956	0.00923672	-31.5095	0	0.000101034
60.196	0.00933218	-31.4293	0	8.1944e-05
60.1964	0.00935127	-31.3625	0	4.37646e-05
60.1968	0.00937036	-31.2899	0	-1.35045e-05
60.1972	0.00931308	-31.2116	0	-1.35045e-05
60.1976	0.00938945	-31.1429	0	-3.25942e-05
60.198	0.00938945	-31.0716	0	-7.07736e-05
60.1984	0.00925581	-31.0028	0	-3.25942e-05
60.1988	0.00935127	-30.9379	0	-7.07736e-05
60.1992	0.00929399	-30.8602	0	-7.07736e-05
60.1996	0.00937036	-30.7914	0	-3.25942e-05
60.2	0.00931308	-30.7246	0	-5.16839e-05
60.2004	0.00937036	-30.6476	0	2.46749e-05
60.2008	0.00929399	-30.5826	0	-1.35045e-05
60.2012	0.00937036	-30.5082	0	-7.07736e-05
60.2016	0.00938945	-30.4502	0	-7.07736e-05
60.202	0.00935127	-30.377	0	8.1944e-05
60.2024	0.00935127	-30.307	0	-5.16839e-05
60.2028	0.00933218	-30.2408	0	0.000139213
60.2032	0.00919853	-30.1752	0	-7.07736e-05
60.2036	0.00929399	-30.116	0	4.37646e-05
60.204	0.00935127	-30.0498	0	4.37646e-05
60.2044	0.00938945	-29.983	0	2.46749e-05
60.2048	0.00933218	-29.9219	0	-8.98633e-05
60.2052	0.00933218	-29.8486	0	-3.25942e-05
60.2056	0.00929399	-29.7901	0	-5.16839e-05
60.206	0.00935127	-29.7258	0	-1.35045e-05
60.2064	0.00925581	-29.6691	0	-0.000166222
60.2068	0.00935127	-29.6061	0	2.46749e-05
60.2072	0.00937036	-29.5399	0	-7.07736e-05
60.2076	0.00935127	-29.4711	0	-1.35045e-05
60.208	0.00933218	-29.4145	0	5.58521e-06
60.2084	0.00938945	-29.361	0	6.28543e-05
60.2088	0.00937036	-29.2993	0	-3.25942e-05
60.2092	0.00933218	-29.2311	0	-7.07736e-05
60.2096	0.00940854	-29.1796	0	5.58521e-06
60.21	0.00929399	-29.1216	0	-7.07736e-05
60.2104	0.00925581	-29.0516	0	5.58521e-06
60.2108	0.0092749	-28.9905	0	2.46749e-05
60.2114	0.00933218	-28.9027	0	-5.16839e-05
60.2118	0.00938945	-28.846	0	-7.07736e-05
60.2122	0.00933218	-28.7919	0	-8.98633e-05
60.2126	0.00929399	-28.7352	0	2.46749e-05
60.213	0.00929399	-28.6798	0	-0.000108953
60.2134	0.00933218	-28.6264	0	5.58521e-06
60.2138	0.00935127	-28.5678	0	-0.000147132
60.2142	0.00938945	-28.5099	0	8.1944e-05
60.2146	0.00935127	-28.45	0	-1.35045e-05
60.2152	0.00931308	-28.3705	0	2.46749e-05
60.2156	0.00931308	-28.3163	0	0.000120123
60.216	0.00937036	-28.2578	0	2.46749e-05
60.2164	0.00929399	-28.2024	0	8.1944e-05
60.217	0.0092749	-28.1247	0	-0.000128043
60.2174	0.00931308	-28.0687	0	-3.25942e-05
60.2178	0.00931308	-28.014	0	-0.000108953
60.2182	0.00935127	-27.9579	0	-1.35045e-05
60.2188	0.00937036	-27.8815	0	6.28543e-05
60.2194	0.00923672	-27.809	0	-5.16839e-05
60.2198	0.00948491	-27.7549	0	-0.000128043
60.2202	0.00938945	-27.7001	0	-7.07736e-05
60.2206	0.00935127	-27.6447	0	5.58521e-06
60.2212	0.00929399	-27.5709	0	2.46749e-05
60.2216	0.00923672	-27.5193	0	-0.000108953
60.222	0.00925581	-27.4678	0	-7.07736e-05
60.2226	0.00925581	-27.3952	0	-5.16839e-05
60.223	0.0092749	-27.3411	0	-1.35045e-05
60.2236	0.00931308	-27.2717	0	-7.07736e-05
60.224	0.00929399	-27.2163	0	-8.98633e-05
60.2244	0.00933218	-27.159	0	-8.98633e-05
60.225	0.00935127	-27.0947	0	-8.98633e-05
60.2256	0.00937036	-27.0298	0	6.28543e-05
60.226	0.00933218	-26.9718	0	-3.25942e-05
60.2266	0.00940854	-26.9012	0	-3.25942e-05
60.2272	0.00931308	-26.8318	0	5.58521e-06
60.2276	0.00938945	-26.7777	0	-0.000166222
60.2282	0.00931308	-26.7115	0	2.46749e-05
60.2288	0.00925581	-26.6332	0	8.1944e-05
60.2294	0.00931308	-26.5676	0	-8.98633e-05
60.23	0.00937036	-26.4995	0	8.1944e-05
60.2306	0.00933218	-26.4256	0	6.28543e-05
60.2312	0.00940854	-26.3556	0	0.000101034
60.2318	0.00931308	-26.2932	0	-0.000128043
60.2324	0.00933218	-26.2308	0	-1.35045e-05
60.2328	0.00931308	-26.1806	0	6.28543e-05
60.2334	0.0092749	-26.1194	0	0.000158303
60.2338	0.00933218	-26.0634	0	-1.35045e-05
60.2344	0.00931308	-26.0061	0	-5.16839e-05
60.235	0.00929399	-25.9342	0	-8.98633e-05
60.2356	0.0092749	-25.8756	0	-7.07736e-05
60.2362	0.00938945	-25.81	0	-3.25942e-05
60.2368	0.00940854	-25.7483	0	8.1944e-05
60.2372	0.00929399	-25.698	0	-1.35045e-05
60.2378	0.00937036	-25.6388	0	2.46749e-05
60.2382	0.00931308	-25.5879	0	5.58521e-06
60.2388	0.00925581	-25.5319	0	5.58521e-06
60.2394	0.00938945	-25.4663	0	2.46749e-05
60.24	0.00935127	-25.4052	0	-5.16839e-05
60.2406	0.00921763	-25.3371	0	-3.25942e-05
60.2412	0.0092749	-25.2804	0	4.37646e-05
60.2418	0.00933218	-25.2155	0	4.37646e-05
60.2424	0.00933218	-25.1594	0	-1.35045e-05
60.243	0.00929399	-25.0971	0	-3.25942e-05
60.2436	0.00935127	-25.0308	0	-0.000185312
60.2442	0.00933218	-24.9736	0	-7.07736e-05
60.2448	0.00935127	-24.9086	0	-8.98633e-05
60.2456	0.00929399	-24.8418	0	2.46749e-05
60.2462	0.00942764	-24.7788	0	-0.000108953
60.2468	0.00929399	-24.7253	0	-0.000108953
60.2474	0.00935127	-24.6686	0	2.46749e-05
60.248	0.00921763	-24.612	0	-3.25942e-05
60.2486	0.00937036	-24.5458	0	-3.25942e-05
60.2492	0.00933218	-24.4897	0	-1.35045e-05
60.2498	0.00942764	-24.4363	0	-7.07736e-05
60.2504	0.00933218	-24.3726	0	-7.07736e-05
60.251	0.00933218	-24.3166	0	-3.25942e-05
60.2516	0.00935127	-24.2625	0	-7.07736e-05
60.2524	0.00940854	-24.1931	0	-3.25942e-05
60.253	0.00916035	-24.1409	0	5.58521e-06
60.2536	0.00937036	-24.0791	0	0.000120123
60.2542	0.00935127	-24.0193	0	-1.35045e-05
60.255	0.00938945	-23.9575	0	-3.25942e-05
60.2556	0.00937036	-23.9053	0	6.28543e-05
60.2562	0.00931308	-23.8506	0	-8.98633e-05
60.2568	0.00935127	-23.7958	0	-5.16839e-05
60.2574	0.00940854	-23.7449	0	-1.35045e-05
60.258	0.00938945	-23.6857	0	-5.16839e-05
60.2588	0.00925581	-23.6233	0	-0.000128043
60.2596	0.00942764	-23.552	0	-1.35045e-05
60.2602	0.00933218	-23.5011	0	5.58521e-06
60.2608	0.00935127	-23.4489	0	-8.98633e-05
60.2616	0.00935127	-23.3846	0	-7.07736e-05
60.2622	0.00931308	-23.3337	0	8.1944e-05
60.2628	0.0092749	-23.2777	0	0.000101034
60.2634	0.00937036	-23.2229	0	-7.07736e-05
60.2642	0.00940854	-23.1637	0	-0.000147132
60.2648	0.00933218	-23.1083	0	4.37646e-05
60.2656	0.00937036	-23.044	0	-5.16839e-05
60.2662	0.00933218	-22.9925	0	-7.07736e-05
60.267	0.00944673	-22.9371	0	-3.25942e-05
60.2676	0.0092749	-22.8868	0	-7.07736e-05
60.2684	0.0092749	-22.8193	0	-1.35045e-05
60.2692	0.00938945	-22.7595	0	8.1944e-05
60.2698	0.00929399	-22.7053	0	-0.000108953
60.2706	0.00933218	-22.6423	0	-5.16839e-05
60.2714	0.0092749	-22.5825	0	-3.25942e-05
60.2722	0.00935127	-22.522	0	-7.07736e-05
60.273	0.00935127	-22.4596	0	-7.07736e-05
60.2738	0.00931308	-22.394	0	2.46749e-05
60.2746	0.0092749	-22.3355	0	-0.000147132
60.2754	0.00933218	-22.2826	0	-5.16839e-05
60.2762	0.00931308	-22.2228	0	6.28543e-05
60.277	0.00933218	-22.1579	0	-7.07736e-05
60.2778	0.00933218	-22.0968	0	4.37646e-05
60.2786	0.00933218	-22.0318	0	-7.07736e-05
60.2794	0.00933218	-21.9764	0	-0.000147132
60.2802	0.00931308	-21.9191	0	5.58521e-06
60.281	0.00931308	-21.8619	0	-3.25942e-05
60.2818	0.00935127	-21.8052	0	-8.98633e-05
60.2826	0.0092749	-21.7504	0	-7.07736e-05
60.2834	0.00937036	-21.6944	0	-1.35045e-05
60.2842	0.00935127	-21.6365	0	-5.16839e-05
60.285	0.00933218	-21.5709	0	5.58521e-06
60.286	0.00933218	-21.5079	0	8.1944e-05
60.2868	0.00933218	-21.4442	0	-3.25942e-05
60.2878	0.00931308	-21.3857	0	2.46749e-05
60.2886	0.00935127	-21.3169	0	-3.25942e-05
60.2896	0.00933218	-21.2647	0	-5.16839e-05
60.2904	0.00937036	-21.2106	0	-8.98633e-05
60.2912	0.00933218	-21.1463	0	2.46749e-05
60.2922	0.00935127	-21.0865	0	-3.25942e-05
60.293	0.00933218	-21.0324	0	-7.07736e-05
60.2938	0.00933218	-20.9763	0	6.28543e-05
60.2946	0.00935127	-20.9197	0	8.1944e-05
60.2958	0.00935127	-20.8541	0	-3.25942e-05
60.2966	0.00923672	-20.7975	0	2.46749e-05
60.2976	0.00931308	-20.7312	0	5.58521e-06
60.2986	0.00931308	-20.6638	0	-1.35045e-05
60.2996	0.00938945	-20.6135	0	-1.35045e-05
60.3004	0.00917944	-20.5606	0	-3.25942e-05
60.3012	0.00938945	-20.5053	0	2.46749e-05
60.3022	0.00931308	-20.4435	0	-8.98633e-05
60.3032	0.00925581	-20.3824	0	-3.25942e-05
60.3042	0.00929399	-20.3257	0	-3.25942e-05
60.305	0.00938945	-20.2697	0	-3.25942e-05
60.3062	0.00925581	-20.2048	0	-5.16839e-05
60.307	0.00929399	-20.1526	0	-7.07736e-05
60.308	0.00937036	-20.0959	0	2.46749e-05
60.309	0.00937036	-20.0342	0	0.000101034
60.3102	0.00937036	-19.9743	0	-3.25942e-05
60.3112	0.00933218	-19.9107	0	-5.16839e-05
60.3122	0.00931308	-19.854	0	-0.000185312
60.3132	0.00935127	-19.7961	0	-0.000185312
60.3142	0.00921763	-19.7362	0	-0.000108953
60.3152	0.00935127	-19.6745	0	-1.35045e-05
60.3162	0.00935127	-19.6242	0	-7.07736e-05
60.3172	0.00931308	-19.565	0	-5.16839e-05
60.3182	0.00935127	-19.5083	0	-8.98633e-05
60.3194	0.00935127	-19.4415	0	0.000101034
60.3204	0.00929399	-19.3867	0	-0.000128043
60.3216	0.00925581	-19.3237	0	-7.07736e-05
60.3226	0.00929399	-19.2664	0	4.37646e-05
60.3238	0.00933218	-19.213	0	-3.25942e-05
60.3246	0.00933218	-19.1569	0	8.1944e-05
60.3258	0.00933218	-19.1041	0	-1.35045e-05
60.3268	0.00933218	-19.0532	0	-7.07736e-05
60.3278	0.00940854	-18.9959	0	6.28543e-05
60.329	0.00937036	-18.9322	0	2.46749e-05
60.3302	0.00929399	-18.8717	0	-7.07736e-05
60.3314	0.00933218	-18.8138	0	2.46749e-05
60.3322	0.00937036	-18.7616	0	-3.25942e-05
60.3334	0.00931308	-18.7062	0	-0.000108953
60.3346	0.00929399	-18.6483	0	6.28543e-05
60.3358	0.00931308	-18.5923	0	8.1944e-05
60.337	0.00935127	-18.5343	0	-1.35045e-05
60.3382	0.00937036	-18.4637	0	2.46749e-05
60.3396	0.00933218	-18.4026	0	-1.35045e-05
60.3408	0.00937036	-18.3389	0	-5.16839e-05
60.342	0.00933218	-18.2829	0	2.46749e-05
60.3434	0.00933218	-18.2243	0	-3.25942e-05
60.3444	0.00940854	-18.1721	0	2.46749e-05
60.3456	0.00921763	-18.1142	0	-3.25942e-05
60.347	0.00923672	-18.0467	0	5.58521e-06
60.3482	0.00933218	-17.9939	0	6.28543e-05
60.3494	0.00925581	-17.9436	0	-3.25942e-05
60.3506	0.00933218	-17.8895	0	-0.000147132
60.3518	0.00921763	-17.8385	0	5.58521e-06
60.353	0.00933218	-17.7755	0	-3.25942e-05
60.3542	0.00935127	-17.7214	0	-3.25942e-05
60.3556	0.00942764	-17.6635	0	2.46749e-05
60.3568	0.00937036	-17.6125	0	-5.16839e-05
60.358	0.00940854	-17.5591	0	-3.25942e-05
60.3592	0.00937036	-17.5056	0	-3.25942e-05
60.3606	0.00933218	-17.4521	0	-1.35045e-05
60.3618	0.00925581	-17.391	0	-5.16839e-05
60.3632	0.00940854	-17.3369	0	2.46749e-05
60.3644	0.00929399	-17.286	0	2.46749e-05
60.3658	0.00935127	-17.2249	0	5.58521e-06
60.3672	0.00929399	-17.1688	0	-3.25942e-05
60.3686	0.00944673	-17.1166	0	-5.16839e-05
60.3696	0.00935127	-17.0651	0	-3.25942e-05
60.371	0.00942764	-17.0078	0	6.28543e-05
60.3726	0.00937036	-16.9543	0	8.1944e-05
60.3738	0.00931308	-16.9015	0	5.58521e-06
60.3752	0.00944673	-16.841	0	-0.000108953
60.3766	0.00929399	-16.7856	0	-3.25942e-05
60.3782	0.0092749	-16.7258	0	5.58521e-06
60.3796	0.00929399	-16.6736	0	8.1944e-05
60.3812	0.00931308	-16.6188	0	-5.16839e-05
60.3826	0.00940854	-16.5641	0	-7.07736e-05
60.3838	0.00937036	-16.5131	0	5.58521e-06
60.3856	0.00937036	-16.4571	0	-3.25942e-05
60.387	0.00929399	-16.4005	0	2.46749e-05
60.3884	0.00938945	-16.3432	0	-7.07736e-05
60.39	0.0092749	-16.2884	0	0.000120123
60.3914	0.00938945	-16.2305	0	4.37646e-05
60.393	0.00929399	-16.1776	0	-1.35045e-05
60.3946	0.00937036	-16.1165	0	-7.07736e-05
60.3962	0.0092749	-16.0662	0	-0.000204402
60.3976	0.0092749	-16.0159	0	2.46749e-05
60.399	0.00933218	-15.965	0	-5.16839e-05
60.4006	0.00929399	-15.9115	0	-8.98633e-05
60.402	0.00931308	-15.8606	0	8.1944e-05
60.4036	0.00938945	-15.8103	0	-0.000108953
60.405	0.00933218	-15.7575	0	8.1944e-05
60.4068	0.0092749	-15.6957	0	-1.35045e-05
60.4086	0.00937036	-15.6372	0	4.37646e-05
60.4104	0.00931308	-15.5799	0	-0.000185312
60.4122	0.00925581	-15.5207	0	0.000101034
60.4138	0.00937036	-15.4666	0	-5.16839e-05
60.4154	0.00935127	-15.4137	0	-8.98633e-05
60.4172	0.00940854	-15.3571	0	-0.000108953
60.419	0.0092749	-15.2953	0	-1.35045e-05
60.4208	0.00933218	-15.2418	0	-3.25942e-05
60.4228	0.00942764	-15.1763	0	-5.16839e-05
60.4248	0.00940854	-15.1234	0	-1.35045e-05
60.4264	0.00923672	-15.0693	0	5.58521e-06
60.4282	0.00944673	-15.0184	0	-8.98633e-05
60.43	0.00933218	-14.9656	0	-5.16839e-05
60.4316	0.00935127	-14.9114	0	-3.25942e-05
60.4334	0.00931308	-14.8592	0	4.37646e-05
60.4352	0.00929399	-14.8077	0	-0.000128043
60.437	0.00938945	-14.7536	0	5.58521e-06
60.439	0.00938945	-14.7007	0	-7.07736e-05
60.4408	0.00937036	-14.646	0	-0.000128043
60.4426	0.00938945	-14.5957	0	2.46749e-05
60.4444	0.00933218	-14.5441	0	2.46749e-05
60.4464	0.00933218	-14.4856	0	5.58521e-06
60.4484	0.00923672	-14.4346	0	-5.16839e-05
60.4502	0.00929399	-14.3792	0	-3.25942e-05
60.4522	0.00940854	-14.327	0	8.1944e-05
60.4542	0.00938945	-14.2761	0	-3.25942e-05
60.456	0.00931308	-14.2239	0	-0.000108953
60.4582	0.00938945	-14.1698	0	4.37646e-05
60.46	0.00937036	-14.1195	0	5.58521e-06
60.4618	0.00931308	-14.066	0	-0.000128043
60.464	0.00933218	-14.0157	0	-1.35045e-05
60.4662	0.00944673	-13.9521	0	-5.16839e-05
60.4686	0.00946582	-13.8954	0	-1.35045e-05
60.4708	0.00937036	-13.8426	0	4.37646e-05
60.4728	0.00937036	-13.7821	0	-1.35045e-05
60.4752	0.00929399	-13.7293	0	-3.25942e-05
60.4772	0.00929399	-13.6739	0	2.46749e-05
60.4798	0.00933218	-13.6185	0	0.000101034
60.4822	0.00935127	-13.5574	0	6.28543e-05
60.4846	0.00937036	-13.5001	0	-3.25942e-05
60.487	0.00942764	-13.4441	0	-1.35045e-05
60.4892	0.00931308	-13.3938	0	2.46749e-05
60.4914	0.00937036	-13.3397	0	-1.35045e-05
60.4938	0.00933218	-13.283	0	-1.35045e-05
60.4962	0.0092749	-13.2315	0	4.37646e-05
60.4984	0.00929399	-13.1786	0	-1.35045e-05
60.501	0.00942764	-13.1271	0	4.37646e-05
60.5034	0.0092749	-13.0691	0	-8.98633e-05
60.506	0.00940854	-13.0137	0	6.28543e-05
60.5082	0.00937036	-12.9634	0	-3.25942e-05
60.511	0.00937036	-12.91	0	2.46749e-05
60.5132	0.00940854	-12.8546	0	4.37646e-05
60.516	0.00935127	-12.7947	0	-1.35045e-05
60.5186	0.00935127	-12.7419	0	-3.25942e-05
60.5212	0.00933218	-12.691	0	5.58521e-06
60.5236	0.00925581	-12.6388	0	8.1944e-05
60.5264	0.00940854	-12.5879	0	-5.16839e-05
60.529	0.00937036	-12.5325	0	-8.98633e-05
60.5318	0.00935127	-12.4809	0	-8.98633e-05
60.5342	0.00938945	-12.4262	0	-5.16839e-05
60.537	0.00933218	-12.3727	0	2.46749e-05
60.54	0.00931308	-12.3198	0	8.1944e-05
60.5426	0.00942764	-12.2594	0	5.58521e-06
60.5456	0.00940854	-12.2072	0	-5.16839e-05
60.5486	0.00923672	-12.1556	0	0.000120123
60.5512	0.00935127	-12.0996	0	-0.000108953
60.5542	0.00938945	-12.0429	0	-8.98633e-05
60.5574	0.00942764	-11.9907	0	6.28543e-05
60.5596	0.00929399	-11.9353	0	-5.16839e-05
60.5634	0.00935127	-11.878	0	-3.25942e-05
60.5664	0.00937036	-11.8214	0	4.37646e-05
60.5694	0.00929399	-11.7685	0	8.1944e-05
60.5724	0.00938945	-11.717	0	-5.16839e-05
60.5756	0.00940854	-11.6661	0	4.37646e-05
60.5784	0.00931308	-11.6094	0	0.000139213
60.5816	0.00940854	-11.5534	0	-3.25942e-05
60.5854	0.00935127	-11.4999	0	0.000120123
60.5882	0.00937036	-11.4464	0	2.46749e-05
60.5914	0.00940854	-11.3961	0	8.1944e-05
60.5948	0.00940854	-11.3433	0	-0.000128043
60.5974	0.00935127	-11.2924	0	2.46749e-05
60.6012	0.00931308	-11.2363	0	-3.25942e-05
60.6044	0.0092749	-11.1854	0	-0.000108953
60.6078	0.00938945	-11.1332	0	6.28543e-05
60.6112	0.0092749	-11.0778	0	5.58521e-06
60.6146	0.00933218	-11.0275	0	2.46749e-05
60.618	0.00940854	-10.9741	0	-0.000108953
60.6214	0.00935127	-10.9238	0	4.37646e-05
60.6248	0.00938945	-10.8703	0	-5.16839e-05
60.6284	0.00931308	-10.82	0	5.58521e-06
60.6318	0.00940854	-10.7684	0	4.37646e-05
60.6358	0.00933218	-10.7131	0	-3.25942e-05
60.639	0.0092749	-10.6609	0	5.58521e-06
60.6428	0.00929399	-10.6087	0	-0.000128043
60.6466	0.00933218	-10.5552	0	0.000139213
60.6506	0.00929399	-10.4992	0	-1.35045e-05
60.6546	0.00935127	-10.4431	0	-5.16839e-05
60.6582	0.00931308	-10.3929	0	4.37646e-05
60.6624	0.00937036	-10.3337	0	-7.07736e-05
60.667	0.00933218	-10.2783	0	0.000120123
60.671	0.0092749	-10.2242	0	-5.16839e-05
60.675	0.00925581	-10.1732	0	4.37646e-05
60.679	0.00938945	-10.1229	0	-3.25942e-05
60.683	0.00933218	-10.072	0	6.28543e-05
60.687	0.00931308	-10.0192	0	-1.35045e-05
60.6914	0.00937036	-9.96697	0	2.46749e-05
60.6954	0.00937036	-9.91158	0	6.28543e-05
60.7002	0.00935127	-9.85111	0	-8.98633e-05
60.7048	0.00929399	-9.79763	0	4.37646e-05
60.709	0.00929399	-9.7467	0	-8.98633e-05
60.7134	0.00937036	-9.69514	0	2.46749e-05
60.7182	0.00935127	-9.64039	0	2.46749e-05
60.7226	0.00931308	-9.58946	0	0.000120123
60.7274	0.00929399	-9.53917	0	0.000101034
60.7318	0.00938945	-9.48888	0	0.000120123
60.736	0.00937036	-9.43413	0	2.46749e-05
60.7408	0.00935127	-9.38384	0	6.28543e-05
60.7458	0.00933218	-9.33228	0	-1.35045e-05
60.7508	0.00933218	-9.28008	0	6.28543e-05
60.7558	0.00935127	-9.2266	0	6.28543e-05
60.7604	0.00929399	-9.17631	0	-7.07736e-05
60.7658	0.00931308	-9.11838	0	-0.000128043
60.7714	0.00931308	-9.06491	0	-1.35045e-05
60.7764	0.00929399	-9.01398	0	-3.25942e-05
60.7816	0.00935127	-8.96369	0	4.37646e-05
60.7864	0.00933218	-8.90894	0	-3.25942e-05
60.7922	0.00935127	-8.85865	0	-1.35045e-05
60.7972	0.00933218	-8.80454	0	0.000120123
60.8036	0.00944673	-8.75361	0	-1.35045e-05
60.8088	0.00938945	-8.69631	0	4.37646e-05
60.8156	0.00935127	-8.6422	0	-1.35045e-05
60.8208	0.00925581	-8.59	0	-1.35045e-05
60.8272	0.00931308	-8.53334	0	-1.35045e-05
60.8336	0.00933218	-8.48305	0	-3.25942e-05
60.8396	0.00940854	-8.43276	0	-1.35045e-05
60.8456	0.00931308	-8.38183	0	0.000177393
60.8518	0.00937036	-8.32836	0	-1.35045e-05
60.8578	0.00937036	-8.27679	0	-0.000108953
60.8634	0.00938945	-8.22587	0	-7.07736e-05
60.8706	0.00931308	-8.17366	0	-1.35045e-05
60.8772	0.00929399	-8.11573	0	6.28543e-05
60.8844	0.00929399	-8.0648	0	5.58521e-06
60.8912	0.00917944	-8.00942	0	-5.16839e-05
60.8982	0.00931308	-7.95658	0	5.58521e-06
60.9056	0.00938945	-7.90629	0	2.46749e-05
60.9114	0.00940854	-7.85345	0	4.37646e-05
60.919	0.00938945	-7.79934	0	-0.000128043
60.9272	0.00938945	-7.74523	0	-7.07736e-05
60.9344	0.00931308	-7.6943	0	2.46749e-05
60.942	0.00940854	-7.6421	0	-1.35045e-05
60.9498	0.00933218	-7.58927	0	-5.16839e-05
60.9572	0.00933218	-7.53897	0	-5.16839e-05
60.9648	0.00937036	-7.4855	0	-8.98633e-05
60.9728	0.00937036	-7.4333	0	2.46749e-05
60.9812	0.00919853	-7.38237	0	-3.25942e-05
60.9892	0.00931308	-7.33144	0	-3.25942e-05
60.9984	0.00938945	-7.27542	0	-3.25942e-05
61.0072	0.00938945	-7.22386	0	-7.07736e-05
61.0158	0.00929399	-7.17293	0	-7.07736e-05
61.0248	0.00933218	-7.11754	0	5.58521e-06
61.0338	0.00946582	-7.06407	0	2.46749e-05
61.0436	0.00931308	-7.01059	0	-0.000108953
61.0532	0.00935127	-6.95839	0	6.28543e-05
61.0628	0.00935127	-6.90428	0	6.28543e-05
61.0728	0.00931308	-6.85272	0	6.28543e-05
61.083	0.00931308	-6.80052	0	8.1944e-05
61.0934	0.00933218	-6.75023	0	-1.35045e-05
61.1028	0.00938945	-6.6993	0	-3.25942e-05
61.1138	0.00935127	-6.64455	0	2.46749e-05
61.1236	0.00929399	-6.59171	0	-3.25942e-05
61.1346	0.00931308	-6.53951	0	-7.07736e-05
61.1458	0.00929399	-6.48731	0	6.28543e-05
61.1578	0.00942764	-6.43447	0	-7.07736e-05
61.1666	0.00944673	-6.38418	0	-1.35045e-05
61.1806	0.00938945	-6.33198	0	2.46749e-05
61.193	0.00938945	-6.27532	0	4.37646e-05
61.205	0.00942764	-6.22185	0	-5.16839e-05
61.2176	0.00933218	-6.16646	0	-7.07736e-05
61.2328	0.00933218	-6.11235	0	5.58521e-06
61.2452	0.00929399	-6.06079	0	4.37646e-05
61.2576	0.00931308	-6.00922	0	-1.35045e-05
61.2722	0.00933218	-5.95638	0	-1.35045e-05
61.2838	0.00938945	-5.90546	0	8.1944e-05
61.2992	0.00938945	-5.85453	0	4.37646e-05
61.3138	0.00937036	-5.8036	0	-5.16839e-05
61.3276	0.00937036	-5.7514	0	-1.35045e-05
61.3406	0.00933218	-5.70047	0	-0.000128043
61.3566	0.00942764	-5.647	0	-7.07736e-05
61.373	0.00935127	-5.59671	0	-0.000108953
61.3884	0.00931308	-5.54514	0	-7.07736e-05
61.4036	0.00929399	-5.49485	0	-1.35045e-05
61.4198	0.00929399	-5.44137	0	5.58521e-06
61.436	0.00933218	-5.38981	0	6.28543e-05
61.455	0.00942764	-5.33952	0	-1.35045e-05
61.4708	0.00940854	-5.28795	0	6.28543e-05
61.4886	0.00931308	-5.23639	0	-0.000128043
61.507	0.00940854	-5.18546	0	4.37646e-05
61.5256	0.00933218	-5.1339	0	-0.000166222
61.542	0.00931308	-5.08106	0	4.37646e-05
61.5632	0.00938945	-5.02504	0	-3.25942e-05
61.5844	0.00929399	-4.9722	0	-1.35045e-05
61.6046	0.00935127	-4.91936	0	-5.16839e-05
61.6272	0.00937036	-4.86843	0	8.1944e-05
61.6452	0.00931308	-4.81623	0	-5.16839e-05
61.6696	0.00937036	-4.76276	0	-3.25942e-05
61.6922	0.00933218	-4.70928	0	-1.35045e-05
61.7142	0.00942764	-4.65836	0	-5.16839e-05
61.738	0.00937036	-4.60615	0	-1.35045e-05
61.7606	0.0092749	-4.54822	0	5.58521e-06
61.7852	0.00937036	-4.4973	0	-5.16839e-05
61.8136	0.00919853	-4.44127	0	-0.000108953
61.8396	0.0092749	-4.38971	0	-8.98633e-05
61.8664	0.00931308	-4.33942	0	2.46749e-05
61.9074	0.00931308	-4.28914	0	5.58521e-06
61.9336	0.00935127	-4.23892	0	6.28543e-05
61.9604	0.00940854	-4.18876	0	5.58521e-06
61.9882	0.00946582	-4.13873	0	-3.25942e-05
62.0166	0.00938945	-4.08845	0	-7.07736e-05
62.0456	0.00938945	-4.03835	0	2.46749e-05
62.0754	0.00935127	-3.98731	0	-0.000108953
62.106	0.0092749	-3.93677	0	-7.07736e-05
62.1376	0.00935127	-3.88629	0	5.58521e-06
62.1692	0.00942764	-3.83613	0	-1.35045e-05
62.2016	0.00933218	-3.7861	0	8.1944e-05
62.235	0.00940854	-3.73556	0	-3.25942e-05
62.2688	0.00931308	-3.68534	0	-0.000185312
62.304	0.00942764	-3.63525	0	-0.000108953
62.34	0.00933218	-3.58477	0	2.46749e-05
62.377	0.00938945	-3.53461	0	-1.35045e-05
62.4148	0.00925581	-3.48401	0	-0.000108953
62.4532	0.00933218	-3.43392	0	4.37646e-05
62.4924	0.00938945	-3.38382	0	-8.98633e-05
62.5342	0.00937036	-3.33335	0	5.58521e-06
62.576	0.00931308	-3.28325	0	-1.35045e-05
62.619	0.00931308	-3.23303	0	-8.98633e-05
62.6636	0.00938945	-3.18205	0	-5.16839e-05
62.7102	0.00933218	-3.13176	0	-0.000108953
62.7574	0.0092749	-3.08161	0	-5.16839e-05
62.8052	0.00938945	-3.03157	0	5.58521e-06
62.8554	0.00942764	-2.9811	0	-8.98633e-05
62.9072	0.00929399	-2.931	0	-3.25942e-05
62.9602	0.00933218	-2.88066	0	-3.25942e-05
63.0142	0.00933218	-2.83056	0	5.58521e-06
63.0716	0.00938945	-2.7797	0	-7.07736e-05
63.1304	0.00948491	-2.72917	0	-3.25942e-05
63.1908	0.00937036	-2.67888	0	-8.98633e-05
63.254	0.00938945	-2.62879	0	-0.000204402
63.3184	0.00931308	-2.57876	0	-7.07736e-05
63.3856	0.00937036	-2.52866	0	5.58521e-06
63.4542	0.00935127	-2.47787	0	-0.000128043
63.5288	0.00937036	-2.42771	0	-3.25942e-05
63.603	0.00925581	-2.37698	0	5.58521e-06
63.682	0.00933218	-2.3267	0	-7.07736e-05
63.7634	0.00937036	-2.27628	0	4.37646e-05
63.848	0.00929399	-2.22613	0	-7.07736e-05
63.9378	0.00937036	-2.17565	0	-7.07736e-05
64.0308	0.00944673	-2.12517	0	6.28543e-05
64.1278	0.00925581	-2.07514	0	-0.000108953
64.2284	0.00933218	-2.02511	0	-0.000108953
64.3324	0.00935127	-1.9747	0	-7.07736e-05
64.4448	0.00933218	-1.92416	0	-0.000147132
64.5638	0.00935127	-1.874	0	-5.16839e-05
64.6862	0.00929399	-1.82397	0	-3.25942e-05
64.8182	0.00937036	-1.77382	0	-7.07736e-05
64.9564	0.00935127	-1.72372	0	-7.07736e-05
65.1026	0.00942764	-1.67318	0	-0.000108953
65.2582	0.00933218	-1.62315	0	0.000177393
65.4246	0.00937036	-1.57287	0	4.37646e-05
65.6034	0.00931308	-1.52265	0	-3.25942e-05
65.794	0.0092749	-1.47217	0	4.37646e-05
65.9948	0.00931308	-1.42182	0	5.58521e-06
66.2166	0.00940854	-1.37167	0	-5.16839e-05
66.4536	0.00935127	-1.32164	0	-5.16839e-05
66.7126	0.0092749	-1.27161	0	-7.07736e-05
66.9828	0.00938945	-1.22145	0	-8.98633e-05
67.2916	0.00938945	-1.17135	0	6.28543e-05
67.6234	0.00942764	-1.1212	0	-5.16839e-05
67.9898	0.00938945	-1.07104	0	-5.16839e-05
68.393	0.00933218	-1.02094	0	-1.35045e-05
68.8418	0.00933218	-0.970914	0	0.000139213
69.346	0.00937036	-0.920884	0	5.58521e-06
69.9176	0.00929399	-0.870854	0	2.46749e-05
70.5592	0.00935127	-0.82076	0	-3.25942e-05
71.3046	0.00938945	-0.770602	0	2.46749e-05
72.1662	0.00929399	-0.720509	0	2.46749e-05
73.1916	0.00937036	-0.67016	0	6.28543e-05
74.4326	0.00935127	-0.62013	0	-3.25942e-05
75.92	0.00944673	-0.5701	0	8.1944e-05
77.8142	0.00942764	-0.519687	0	-0.000147132
80.2852	0.00929399	-0.46953	0	-7.07736e-05
83.7774	0.00929399	-0.419473	0	-5.16839e-05
88.327	0.00935127	-0.369348	0	5.58521e-06
95.065	0.00933218	-0.319292	0	-3.25942e-05
105.065	0.00940854	-0.270509	0	6.28543e-05
115.065	0.00940854	-0.23812	0	-8.98633e-05
125.065	0.00938945	-0.215164	0	-7.07736e-05
135.065	0.00940854	-0.197045	0	-1.35045e-05
145.065	0.00937036	-0.183476	0	-8.98633e-05
155.065	0.00940854	-0.170874	0	5.58521e-06
165.065	0.00933218	-0.159527	0	5.58521e-06
175.065	0.00937036	-0.150069	0	-8.98633e-05
185.065	0.00931308	-0.141796	0	6.28543e-05
195.065	0.0092749	-0.134604	0	5.58521e-06
205.065	0.00935127	-0.128252	0	4.37646e-05
215.065	0.00946582	-0.122594	0	-1.35045e-05
225.065	0.00933218	-0.117865	0	2.46749e-05
235.065	0.00942764	-0.112825	0	-5.16839e-05
245.065	0.00937036	-0.109172	0	-0.000108953
255.065	0.00935127	-0.105149	0	-0.000108953
265.065	0.00937036	-0.101528	0	6.28543e-05
275.065	0.00938945	-0.0980404	0	5.58521e-06
285.065	0.00937036	-0.095361	0	-1.35045e-05
295.065	0.00948491	-0.0925352	0	-0.000108953
305.065	0.00923672	-0.0896776	0	-8.98633e-05
315.065	0.00933218	-0.0871191	0	8.1944e-05
325.065	0.00940854	-0.0845034	0	-8.98633e-05
335.065	0.00935127	-0.0817221	0	-5.16839e-05
345.065	0.00929399	-0.0793482	0	-1.35045e-05
355.065	0.00938945	-0.0771398	0	-7.07736e-05
365.065	0.00935127	-0.0750586	0	-3.25942e-05
375.065	0.00929399	-0.0730729	0	8.1944e-05
385.065	0.009504	-0.0710873	0	2.46749e-05
395.065	0.00938945	-0.0690825	0	-1.35045e-05
405.065	0.0092749	-0.0674723	0	-0.000147132
415.065	0.00938945	-0.0657985	0	-1.35045e-05
425.065	0.00937036	-0.0643028	0	-0.000166222
435.065	0.00937036	-0.0625335	0	-1.35045e-05
445.065	0.00935127	-0.0607897	0	-3.25942e-05
455.065	0.00929399	-0.0593832	0	-3.25942e-05
465.065	0.00940854	-0.0581548	0	8.1944e-05
475.065	0.00933218	-0.0569201	0	6.28543e-05
485.065	0.00923672	-0.0551318	0	5.58521e-06
495.065	0.00948491	-0.0543808	0	-1.35045e-05
505.065	0.00938945	-0.053477	0	-8.98633e-05
515.065	0.00933218	-0.0519177	0	-1.35045e-05
525.065	0.00944673	-0.0507785	0	0.000101034
535.065	0.00933218	-0.049442	0	-5.16839e-05
545.065	0.00933218	-0.048901	0	2.46749e-05
555.065	0.00940854	-0.0479591	0	-8.98633e-05
565.065	0.00933218	-0.0467308	0	5.58521e-06
575.065	0.00937036	-0.0461007	0	-1.35045e-05
585.065	0.00919853	-0.0449233	0	6.28543e-05
595.065	0.00942764	-0.0443676	0	-8.98633e-05
605.065	0.00946582	-0.04341	0	-0.000128043
615.065	0.00935127	-0.0425675	0	6.28543e-05
625.065	0.00935127	-0.0421126	0	-1.35045e-05
635.065	0.00940854	-0.0411837	0	5.58521e-06
645.065	0.00937036	-0.0405156	0	-7.07736e-05
655.065	0.00940854	-0.0395923	0	5.58521e-06
665.065	0.00937036	-0.0388237	0	0.000101034
675.065	0.0092749	-0.0382574	0	-3.25942e-05
685.065	0.00935127	-0.0375353	0	-8.98633e-05
695.065	0.00935127	-0.0368233	0	-1.35045e-05
705.065	0.00938945	-0.036152	0	-8.98633e-05
715.065	0.00933218	-0.0356685	0	8.1944e-05
725.065	0.00946582	-0.0349813	0	5.58521e-06
735.065	0.00942764	-0.0344691	0	-8.98633e-05
745.065	0.00940854	-0.0339461	0	-1.35045e-05
755.065	0.00929399	-0.0333658	0	6.28543e-05
765.065	0.00938945	-0.0327874	0	5.58521e-06
775.065	0.00933218	-0.0321187	0	5.58521e-06
785.065	0.00940854	-0.0316714	0	-1.35045e-05
795.065	0.00931308	-0.0311236	0	-5.16839e-05
805.065	0.00933218	-0.0306425	0	5.58521e-06
815.065	0.00940854	-0.0300368	0	-7.07736e-05
825.065	0.00931308	-0.0295774	0	-1.35045e-05
835.065	0.00938945	-0.0292396	0	-3.25942e-05
845.065	0.00942764	-0.0286746	0	-8.98633e-05
855.065	0.00933218	-0.0282801	0	-3.25942e-05
865.065	0.00933218	-0.027848	0	-5.16839e-05
875.065	0.00938945	-0.0274408	0	-5.16839e-05
885.065	0.00938945	-0.0268733	0	2.46749e-05
895.065	0.00938945	-0.0270622	0	5.58521e-06
905.065	0.00933218	-0.0266919	0	2.46749e-05
915.065	0.00935127	-0.0262981	0	-1.35045e-05
925.065	0.00940854	-0.025742	0	-3.25942e-05
935.065	0.00935127	-0.0254391	0	-5.16839e-05
945.065	0.00933218	-0.0256694	0	0.000158303
955.065	0.00929399	-0.0250128	0	-7.07736e-05
965.065	0.00935127	-0.0245191	0	-5.16839e-05
975.065	0.00929399	-0.0242983	0	-8.98633e-05
985.065	0.00938945	-0.0238943	0	-0.000185312
995.065	0.00940854	-0.0235131	0	2.46749e-05
1005.06	0.0092749	-0.0231059	0	-3.25942e-05
1015.06	0.0092749	-0.0231339	0	-0.000166222
1025.06	0.00948491	-0.0227814	0	-3.25942e-05
1035.06	0.00933218	-0.0225085	0	-7.07736e-05
1045.06	0.00935127	-0.0221445	0	-7.07736e-05
1055.06	0.00933218	-0.0220204	0	-8.98633e-05
1065.06	0.00944673	-0.0217023	0	-7.07736e-05
1075.06	0.00942764	-0.0214631	0	-1.35045e-05
1085.06	0.00929399	-0.021115	0	-3.25942e-05
1095.06	0.00921763	-0.0211882	0	4.37646e-05
1105.06	0.00938945	-0.0208567	0	-7.07736e-05
1115.06	0.00940854	-0.0205265	0	6.28543e-05
1125.06	0.00937036	-0.0204062	0	6.28543e-05
1135.06	0.00944673	-0.0200906	0	4.37646e-05
1145.06	0.00933218	-0.0197388	0	0.000120123
1155.06	0.00948491	-0.0195892	0	-8.98633e-05
1165.06	0.00931308	-0.019455	0	2.46749e-05
1175.06	0.00944673	-0.0192374	0	4.37646e-05
1185.06	0.00940854	-0.0190026	0	-5.16839e-05
1195.06	0.00923672	-0.0190815	0	-3.25942e-05
1205.06	0.00933218	-0.0187634	0	-8.98633e-05
1215.06	0.00938945	-0.0185133	0	-3.25942e-05
1225.06	0.00935127	-0.0183326	0	2.46749e-05
1235.06	0.00940854	-0.0181245	0	-5.16839e-05
1245.06	0.00931308	-0.0179693	0	-3.25942e-05
1255.06	0.00937036	-0.0177905	0	-3.25942e-05
1265.06	0.00935127	-0.017613	0	5.58521e-06
1275.06	0.0092749	-0.0174615	0	-1.35045e-05
1285.06	0.00942764	-0.017298	0	4.37646e-05
1295.06	0.00935127	-0.017676	0	-1.35045e-05
1305.06	0.00931308	-0.017041	0	-5.16839e-05
1315.06	0.00933218	-0.0168921	0	6.28543e-05
1325.06	0.00935127	-0.0167419	0	-5.16839e-05
1335.06	0.00940854	-0.0166408	0	6.28543e-05
1345.06	0.00931308	-0.0164499	0	-7.07736e-05
1355.06	0.00935127	-0.0162386	0	2.46749e-05
1365.06	0.00931308	-0.0161527	0	4.37646e-05
1375.06	0.00946582	-0.0160936	0	-8.98633e-05
1385.06	0.00940854	-0.0158352	0	-7.07736e-05
1395.06	0.00935127	-0.0157652	0	6.28543e-05
1405.06	0.00944673	-0.015895	0	2.46749e-05
1415.06	0.00933218	-0.0157283	0	2.46749e-05
1425.06	0.00942764	-0.0155457	0	2.46749e-05
1435.06	0.00938945	-0.0153409	0	-1.35045e-05
1445.06	0.00938945	-0.0152301	0	-0.000108953
1455.06	0.00931308	-0.0151582	0	2.46749e-05
1465.06	0.00933218	-0.0150081	0	5.58521e-06
1475.06	0.00921763	-0.0148916	0	5.58521e-06
1485.06	0.00938945	-0.014676	0	2.46749e-05
1495.06	0.00933218	-0.0148878	0	6.28543e-05
1505.06	0.00933218	-0.0146709	0	-5.16839e-05
1515.06	0.00937036	-0.0145226	0	8.1944e-05
1525.06	0.00933218	-0.0145608	0	4.37646e-05
1535.06	0.00944673	-0.0143292	0	2.46749e-05
1545.06	0.00935127	-0.0141548	0	-0.000108953
1555.06	0.00931308	-0.014095	0	4.37646e-05
1565.06	0.00937036	-0.0139207	0	-5.16839e-05
1575.06	0.00933218	-0.0138284	0	-0.000108953
1585.06	0.00935127	-0.0136522	0	8.1944e-05
1595.06	0.0092749	-0.0135338	0	0.000101034
1605.06	0.00935127	-0.0133888	0	-8.98633e-05
1615.06	0.00944673	-0.0132832	0	-0.000108953
1625.06	0.00937036	-0.0134613	0	-8.98633e-05
1635.06	0.00938945	-0.0132583	0	-0.000108953
1645.06	0.00933218	-0.013021	0	-8.98633e-05
1655.06	0.00942764	-0.0131152	0	2.46749e-05
1665.06	0.00925581	-0.0129669	0	0.000101034
1675.06	0.00931308	-0.0128435	0	-1.35045e-05
1685.06	0.00935127	-0.0127525	0	-7.07736e-05
1695.06	0.00937036	-0.0127996	0	4.37646e-05
1705.06	0.00938945	-0.0126259	0	-0.000147132
1715.06	0.00933218	-0.012512	0	-0.000108953
1725.06	0.00929399	-0.0124592	0	4.37646e-05
1735.06	0.00929399	-0.0123905	0	2.46749e-05
1745.06	0.00935127	-0.0121932	0	-1.35045e-05
1755.06	0.00929399	-0.0129854	0	6.28543e-05
1765.06	0.00933218	-0.0128397	0	-7.07736e-05
1775.06	0.0092749	-0.0126672	0	5.58521e-06
1785.06	0.00944673	-0.0127061	0	2.46749e-05
1795.06	0.00931308	-0.0125362	0	4.37646e-05
1805.06	0.00942764	-0.0123357	0	-0.000128043
1815.06	0.00931308	-0.0123415	0	4.37646e-05
1825.06	0.00929399	-0.0123014	0	-1.35045e-05
1835.06	0.00929399	-0.0121837	0	-3.25942e-05
1845.06	0.00944673	-0.0120768	0	-1.35045e-05
1855.06	0.00938945	-0.0120628	0	-5.16839e-05
1860.05	0.00938945	-0.0119336	0	-7.07736e-05