File: EXPERIMENTAL-DATA/Electrochemical-cycling/S-series/2024-07-02_S24_TPcell_t1800_C0500_J01_newScript_02_CA_C02.txt
time/s	Ewe/V	I/mA	error
60.0484	2.81746	-0.00038972	0
60.1776	0.0485532	-41.9203	0
60.185	0.0487441	-41.0015	0
60.1924	0.0486296	-40.1063	0
60.1998	0.0486869	-39.2372	0
60.2072	0.0487632	-38.4025	0
60.2146	0.0487441	-37.6041	0
60.222	0.0487823	-36.8617	0
60.2294	0.0486678	-36.1645	0
60.2368	0.0487441	-35.5099	0
60.2446	0.0487632	-34.8809	0
60.2522	0.0486487	-34.2894	0
60.2602	0.0485914	-33.7132	0
60.268	0.0486869	-33.1815	0
60.2758	0.048515	-32.6791	0
60.2838	0.0485341	-32.1819	0
60.2924	0.0487632	-31.6681	0
60.3008	0.048706	-31.1956	0
60.3098	0.0487441	-30.7003	0
60.3184	0.0486869	-30.2469	0
60.3272	0.0487441	-29.8006	0
60.3362	0.0485914	-29.3651	0
60.345	0.048706	-28.955	0
60.3536	0.0486869	-28.5558	0
60.3638	0.0486105	-28.105	0
60.3724	0.0486869	-27.7459	0
60.3838	0.0486869	-27.2767	0
60.393	0.0486296	-26.9042	0
60.4036	0.0487823	-26.5024	0
60.4144	0.048706	-26.1045	0
60.4254	0.048706	-25.7078	0
60.4364	0.0487632	-25.3277	0
60.448	0.0487441	-24.9419	0
60.46	0.048725	-24.5509	0
60.4696	0.0488205	-24.253	0
60.4794	0.0487441	-23.9543	0
60.4918	0.0486105	-23.5984	0
60.5036	0.0486678	-23.2591	0
60.5176	0.048706	-22.8809	0
60.5298	0.0485723	-22.5574	0
60.5406	0.0487823	-22.2836	0
60.5546	0.0486678	-21.9417	0
60.5686	0.048706	-21.6144	0
60.5816	0.0487823	-21.3082	0
60.596	0.0486678	-20.9867	0
60.6084	0.0486296	-20.7345	0
60.6208	0.0486487	-20.4709	0
60.6354	0.0486105	-20.1831	0
60.6492	0.048706	-19.9202	0
60.6626	0.0486869	-19.6648	0
60.6782	0.048706	-19.3892	0
60.6928	0.0486869	-19.1402	0
60.707	0.048706	-18.9065	0
60.7236	0.0487441	-18.6455	0
60.7378	0.0486296	-18.4169	0
60.753	0.0487441	-18.1921	0
60.7676	0.0486869	-17.9808	0
60.786	0.048725	-17.7197	0
60.8014	0.0488205	-17.5185	0
60.8182	0.0486105	-17.3039	0
60.8326	0.0487823	-17.1301	0
60.8482	0.048725	-16.9467	0
60.865	0.0487441	-16.7436	0
60.8802	0.0486678	-16.5717	0
60.8984	0.0487441	-16.3712	0
60.9148	0.048706	-16.198	0
60.9372	0.048706	-15.97	0
60.953	0.0486487	-15.8179	0
60.9716	0.0486869	-15.6536	0
60.9858	0.0486678	-15.5078	0
61.0058	0.048706	-15.334	0
61.0234	0.0486487	-15.1939	0
61.0438	0.0486678	-15.0124	0
61.0616	0.0488014	-14.8685	0
61.077	0.0485914	-14.7425	0
61.097	0.0487441	-14.6088	0
61.1138	0.048725	-14.4782	0
61.1316	0.0488014	-14.3477	0
61.1534	0.048725	-14.1923	0
61.172	0.0486105	-14.0695	0
61.1914	0.0486869	-13.9408	0
61.2084	0.0486869	-13.8345	0
61.2268	0.0486105	-13.7237	0
61.2462	0.048706	-13.6066	0
61.2634	0.0487823	-13.5079	0
61.2788	0.048706	-13.4187	0
61.293	0.048725	-13.3347	0
61.3084	0.048706	-13.2596	0
61.3306	0.0486296	-13.1335	0
61.35	0.048725	-13.0323	0
61.3678	0.0486105	-12.9342	0
61.3914	0.048706	-12.8113	0
61.41	0.048706	-12.7305	0
61.4306	0.0486105	-12.6337	0
61.447	0.0486105	-12.5598	0
61.4658	0.0486678	-12.4732	0
61.4808	0.0487441	-12.3994	0
61.4978	0.0486105	-12.3287	0
61.5168	0.048706	-12.2517	0
61.5352	0.0486678	-12.1772	0
61.5578	0.048706	-12.0823	0
61.5768	0.0487441	-12.0059	0
61.5944	0.0486678	-11.9422	0
61.6156	0.048706	-11.8544	0
61.6328	0.048706	-11.7983	0
61.654	0.0486678	-11.7238	0
61.673	0.0486869	-11.6538	0
61.6912	0.0487441	-11.599	0
61.7082	0.048706	-11.5335	0
61.742	0.0487632	-11.4144	0
61.7624	0.048706	-11.3514	0
61.7854	0.048706	-11.2775	0
61.8044	0.0486105	-11.2208	0
61.8238	0.0486869	-11.1603	0
61.8402	0.048916	-11.6283	0
61.8534	0.0486678	-11.0846	0
61.8708	0.048706	-11.0241	0
61.8866	0.0487823	-10.9814	0
61.8996	0.048725	-10.942	0
61.9148	0.0486678	-10.898	0
61.9326	0.0486869	-10.856	0
61.9554	0.0487441	-10.7911	0
61.9724	0.0486678	-10.7433	0
61.9852	0.048706	-10.7096	0
62.008	0.0486678	-10.6586	0
62.0236	0.0486869	-10.6147	0
62.0438	0.0486869	-10.5644	0
62.059	0.0487441	-10.53	0
62.073	0.0485532	-10.4899	0
62.09	0.0486678	-10.46	0
62.1062	0.0486487	-10.4275	0
62.1256	0.0486678	-10.374	0
62.1478	0.048725	-10.3231	0
62.1674	0.0486296	-10.2849	0
62.1854	0.0486105	-10.2499	0
62.2038	0.0487441	-10.2123	0
62.2244	0.0487632	-10.1575	0
62.2414	0.048725	-10.1225	0
62.2586	0.0485914	-10.1002	0
62.2754	0.0487441	-10.0608	0
62.2934	0.0486296	-10.0289	0
62.3124	0.0486296	-9.99326	0
62.3344	0.048706	-9.94997	0
62.3508	0.0486487	-9.90858	0
62.3698	0.0486296	-9.88502	0
62.3926	0.0486678	-9.84045	0
62.4094	0.0486487	-9.82072	0
62.431	0.0485723	-9.78315	0
62.4552	0.0486869	-9.73476	0
62.4746	0.0487441	-9.70101	0
62.4926	0.0486678	-9.68701	0
62.5118	0.048706	-9.65008	0
62.529	0.0487441	-9.62015	0
62.548	0.0486105	-9.58895	0
62.5648	0.048706	-9.56794	0
62.5864	0.0486678	-9.52974	0
62.6032	0.0486678	-9.51573	0
62.6214	0.0486487	-9.48835	0
62.644	0.0487632	-9.46034	0
62.6594	0.0486678	-9.43105	0
62.6774	0.0487823	-9.40813	0
62.6928	0.048706	-9.38011	0
62.707	0.0486869	-9.37375	0
62.7278	0.0487632	-9.33682	0
62.7448	0.0486487	-9.32345	0
62.762	0.0486869	-9.29034	0
62.7818	0.0485723	-9.27251	0
62.8034	0.0485914	-9.23622	0
62.8222	0.048725	-9.22094	0
62.8462	0.0487632	-9.19038	0
62.8648	0.0487632	-9.15472	0
62.8816	0.0486296	-9.15217	0
62.902	0.0487441	-9.12288	0
62.924	0.048725	-9.09614	0
62.9434	0.0486296	-9.07513	0
62.963	0.0486869	-9.06303	0
62.9806	0.048725	-9.02865	0
63.0012	0.0485532	-9.01273	0
63.0228	0.0487632	-8.99236	0
63.0412	0.0487823	-8.97453	0
63.0618	0.048706	-8.95734	0
63.0818	0.0486869	-8.92869	0
63.1016	0.0486678	-8.92041	0
63.121	0.048706	-8.89112	0
63.1392	0.0486869	-8.87266	0
63.161	0.0487441	-8.85929	0
63.1758	0.048706	-8.84974	0
63.194	0.0488014	-8.83828	0
63.2112	0.048706	-8.81536	0
63.2296	0.0487632	-8.79689	0
63.252	0.0486678	-8.78225	0
63.277	0.0486678	-8.75869	0
63.3018	0.0486678	-8.74659	0
63.32	0.0486296	-8.71221	0
63.333	0.048706	-8.70584	0
63.3526	0.048706	-8.69183	0
63.3696	0.048706	-8.69056	0
63.388	0.048725	-8.66063	0
63.411	0.048725	-8.64535	0
63.4284	0.0486869	-8.63708	0
63.4446	0.048725	-8.66	0
63.4636	0.0486678	-8.62371	0
63.4868	0.048706	-8.58359	0
63.5082	0.0487441	-8.56831	0
63.533	0.0487632	-8.54603	0
63.55	0.0486105	-8.54157	0
63.5682	0.048725	-8.5403	0
63.5844	0.0488205	-8.51992	0
63.6076	0.0486869	-8.50019	0
63.624	0.0486487	-8.49318	0
63.6396	0.0486105	-8.47663	0
63.6586	0.0485723	-8.4658	0
63.6764	0.048725	-8.46198	0
63.7	0.0486487	-8.44606	0
63.7192	0.0486487	-8.42824	0
63.7406	0.048706	-8.42569	0
63.7552	0.0486869	-8.41041	0
63.7728	0.048725	-8.38876	0
63.794	0.0486296	-8.38112	0
63.8132	0.0486869	-8.36648	0
63.833	0.0486869	-8.35374	0
63.8504	0.0486678	-8.34101	0
63.8644	0.0486678	-8.33655	0
63.8832	0.0487441	-8.32636	0
63.902	0.048706	-8.32382	0
63.92	0.0486487	-8.3028	0
63.9412	0.048706	-8.29835	0
63.9584	0.0487823	-8.29007	0
63.9764	0.048725	-8.26397	0
63.9982	0.0487441	-8.26651	0
64.018	0.0486487	-8.24423	0
64.0352	0.0486487	-8.23786	0
64.0542	0.0486296	-8.23086	0
64.0726	0.048706	-8.21749	0
64.0914	0.048706	-8.19966	0
64.1108	0.0488014	-8.19648	0
64.1292	0.0486296	-8.19456	0
64.143	0.048725	-8.17101	0
64.1634	0.0486678	-8.16655	0
64.1802	0.0486296	-8.14936	0
64.1968	0.0487441	-8.14809	0
64.2128	0.048725	-8.18756	0
64.229	0.0486678	-8.17355	0
64.2458	0.0487441	-8.15573	0
64.2606	0.048706	-8.14936	0
64.276	0.048725	-8.10734	0
64.3008	0.0486678	-8.08633	0
64.3174	0.0487441	-8.07041	0
64.338	0.0486296	-8.07168	0
64.3578	0.0486296	-8.0564	0
64.3788	0.0486869	-8.04494	0
64.393	0.0487632	-8.03157	0
64.411	0.0487632	-8.03157	0
64.4262	0.0486105	-8.02074	0
64.4444	0.0486105	-8.01119	0
64.4602	0.0487823	-8.00992	0
64.479	0.0486487	-8.00164	0
64.494	0.048725	-8.00228	0
64.5108	0.0488205	-7.98954	0
64.5358	0.048706	-7.97044	0
64.5504	0.0487441	-7.95707	0
64.5708	0.0486296	-7.95898	0
64.5938	0.0486296	-7.93988	0
64.611	0.048725	-7.93352	0
64.6286	0.0487632	-7.92142	0
64.6502	0.0487632	-7.91569	0
64.6694	0.0486487	-7.9125	0
64.6908	0.0487441	-7.89977	0
64.712	0.0486678	-7.88321	0
64.7266	0.0487632	-7.89531	0
64.7434	0.0487632	-7.87239	0
64.7592	0.0488014	-7.87939	0
64.7754	0.0487823	-7.8673	0
64.7934	0.048725	-7.85265	0
64.8166	0.0486487	-7.84947	0
64.8362	0.048706	-7.83865	0
64.8586	0.048725	-7.82209	0
64.8742	0.0487441	-7.83228	0
64.892	0.0486869	-7.81763	0
64.9058	0.0486869	-7.80999	0
64.9242	0.048725	-7.81063	0
64.941	0.0487441	-7.80172	0
64.9606	0.0486487	-7.79026	0
64.985	0.0487441	-7.78198	0
65.0058	0.048706	-7.7737	0
65.0278	0.0486678	-7.76288	0
65.0404	0.0486487	-7.76033	0
65.053	0.0486487	-7.78071	0
65.0652	0.0486678	-7.7667	0
65.0746	0.0486296	-8.07932	0
65.0926	0.0487441	-7.78835	0
65.1068	0.0486296	-7.74187	0
65.1246	0.0485341	-7.76606	0
65.1414	0.0486678	-7.73741	0
65.158	0.0488014	-7.7234	0
65.178	0.0487632	-7.71003	0
65.2026	0.048725	-7.70621	0
65.2204	0.0486678	-7.6973	0
65.2424	0.0486678	-7.68838	0
65.26	0.0488014	-7.68647	0
65.276	0.0488205	-7.68329	0
65.2962	0.0487441	-7.66546	0
65.3168	0.0486296	-7.79535	0
65.3348	0.0487823	-7.72722	0
65.3544	0.0486105	-7.66164	0
65.3704	0.0488014	-7.66737	0
65.3884	0.048706	-7.64636	0
65.4094	0.0487823	-7.64381	0
65.4266	0.0487632	-7.63108	0
65.4474	0.0486869	-7.6279	0
65.4646	0.0487823	-7.61707	0
65.4812	0.0487823	-7.62726	0
65.4998	0.0486869	-7.60688	0
65.5186	0.0486487	-7.5916	0
65.5344	0.0485532	-7.59351	0
65.5534	0.048706	-7.69539	0
65.5648	0.0486296	-7.75524	0
65.5746	0.0486487	-7.71703	0
65.5898	0.0487441	-7.58778	0
65.6058	0.048706	-7.57951	0
65.6218	0.0488396	-7.56486	0
65.633	0.048706	-7.73677	0
65.644	0.0488396	-7.62408	0
65.6586	0.0486869	-7.55977	0
65.677	0.0488587	-7.62981	0
65.6884	0.048725	-7.57378	0
65.7092	0.0486678	-7.57951	0
65.7224	0.0488014	-7.58587	0
65.7388	0.0486869	-7.63044	0
65.7544	0.0486296	-7.78198	0
65.7726	0.0486296	-7.54894	0
65.7892	0.0487441	-7.54958	0
65.8042	0.0486296	-7.5464	0
65.8146	0.0486678	-7.53239	0
65.8282	0.0486869	-7.64827	0
65.8418	0.0486678	-7.54831	0
65.8582	0.0486487	-7.55213	0
65.8748	0.0486678	-7.52029	0
65.8888	0.0488205	-7.52857	0
65.9068	0.0486678	-7.50883	0
65.928	0.0486296	-7.5222	0
65.9442	0.0488014	-7.50246	0
65.961	0.048706	-7.48782	0
65.9736	0.0486105	-7.48782	0
65.9916	0.0486105	-7.48782	0
66.0116	0.048725	-7.48145	0
66.0292	0.0486487	-7.47127	0
66.047	0.0487632	-7.46681	0
66.0686	0.048706	-7.45789	0
66.0856	0.0486869	-7.46745	0
66.1024	0.0487441	-7.49801	0
66.115	0.0487823	-7.5031	0
66.125	0.0487441	-7.47254	0
66.1392	0.0486869	-7.4961	0
66.1528	0.0486869	-7.55213	0
66.1664	0.0486678	-7.54385	0
66.1798	0.0487632	-7.46235	0
66.1924	0.0488205	-7.63681	0
66.2034	0.0485532	-7.46235	0
66.2204	0.0486869	-7.56041	0
66.2326	0.0487823	-7.51838	0
66.2478	0.0487632	-7.49164	0
66.2624	0.0486487	-7.45853	0
66.2768	0.0487441	-7.44325	0
66.2946	0.0486296	-7.71831	0
66.3042	0.0486296	-7.48082	0
66.323	0.0487632	-7.41078	0
66.3444	0.048706	-7.41715	0
66.366	0.048725	-7.40505	0
66.3852	0.0486105	-7.39613	0
66.4046	0.0486869	-7.4025	0
66.421	0.0486487	-7.39741	0
66.4366	0.0486105	-7.39486	0
66.4514	0.0486487	-7.38913	0
66.4654	0.0487823	-7.38977	0
66.484	0.0487632	-7.37894	0
66.5076	0.048706	-7.38276	0
66.5316	0.0486678	-7.36939	0
66.5478	0.048706	-7.37194	0
66.5668	0.0487632	-7.3643	0
66.5784	0.0487441	-7.54958	0
66.5888	0.0486678	-7.57823	0
66.6016	0.048725	-7.5413	0
66.6128	0.048725	-7.4267	0
66.6314	0.048706	-7.36939	0
66.6484	0.048725	-7.63745	0
66.6614	0.048706	-7.49673	0
66.6758	0.048706	-7.38085	0
66.6962	0.048725	-7.51647	0
66.71	0.0487441	-7.45407	0
66.7226	0.048706	-7.71703	0
66.7346	0.048706	-7.48909	0
66.7468	0.0487823	-7.57314	0
66.7602	0.0486296	-7.4216	0
66.7736	0.0486678	-7.54258	0
66.7828	0.0488778	-7.63936	0
66.795	0.0486869	-7.34392	0
66.8124	0.048706	-7.33119	0
66.8304	0.048706	-7.32419	0
66.8504	0.0488396	-7.32864	0
66.867	0.048725	-7.32355	0
66.8808	0.0487632	-7.31591	0
66.9026	0.048725	-7.31655	0
66.9212	0.0487632	-7.30636	0
66.9418	0.0486296	-7.36239	0
66.9592	0.0486487	-7.42224	0
66.968	0.0488014	-7.36685	0
66.983	0.048706	-7.30318	0
67.001	0.0487441	-7.29999	0
67.0164	0.0488396	-7.41778	0
67.0292	0.0486869	-7.52411	0
67.04	0.0486869	-7.39804	0
67.0498	0.0486869	-7.37767	0
67.0622	0.0486296	-7.38213	0
67.075	0.0487823	-7.32801	0
67.0938	0.0486678	-7.30381	0
67.1118	0.048725	-7.2949	0
67.1238	0.0487441	-7.3452	0
67.139	0.048706	-7.34392	0
67.1542	0.0487823	-7.39359	0
67.1668	0.0486296	-7.30572	0
67.1762	0.0485532	-7.80681	0
67.184	0.0488396	-7.55276	0
67.192	0.048725	-7.46299	0
67.201	0.048706	-7.31209	0
67.2228	0.048706	-7.28535	0
67.2386	0.0486487	-7.2758	0
67.254	0.048725	-7.5222	0
67.2656	0.0487632	-7.48846	0
67.2744	0.048725	-7.34392	0
67.2844	0.0487441	-7.30445	0
67.2946	0.048725	-7.34902	0
67.3068	0.048706	-7.31018	0
67.318	0.048706	-7.26179	0
67.3288	0.0487441	-7.2516	0
67.3472	0.0486105	-7.25606	0
67.358	0.048706	-7.57059	0
67.3716	0.0486296	-7.32291	0
67.3868	0.0486869	-7.44325	0
67.4008	0.0486487	-8.3079	0
67.4112	0.048725	-7.69284	0
67.4238	0.0486869	-7.49291	0
67.4328	0.0487823	-7.26943	0
67.4478	0.048725	-7.25415	0
67.473	0.0487441	-7.2325	0
67.4872	0.0486487	-7.24396	0
67.5054	0.0488396	-7.23696	0
67.5218	0.0486487	-7.22613	0
67.5446	0.0487632	-7.21977	0
67.5586	0.0487441	-7.42542	0
67.5718	0.0486487	-7.22168	0
67.5882	0.0486105	-7.23123	0
67.6062	0.048725	-7.21149	0
67.615	0.048706	-7.37449	0
67.6298	0.0486487	-7.38404	0
67.643	0.0486296	-7.31209	0
67.663	0.0487441	-7.22231	0
67.6808	0.0487441	-7.51838	0
67.6938	0.048706	-7.21213	0
67.7084	0.048725	-7.20512	0
67.73	0.0487823	-7.20194	0
67.7456	0.0487632	-7.20321	0
67.7626	0.0486487	-7.18666	0
67.7734	0.0487823	-7.58396	0
67.7832	0.0486105	-7.27707	0
67.8008	0.0487441	-7.22104	0
67.8164	0.0486487	-7.25988	0
67.8346	0.0486487	-7.1822	0
67.8534	0.048706	-7.18984	0
67.8666	0.0487441	-7.50819	0
67.8786	0.0486678	-7.29553	0
67.8906	0.0488396	-7.19939	0
67.9022	0.0487632	-7.41842	0
67.9162	0.048706	-7.21595	0
67.9334	0.0487441	-7.35602	0
67.9484	0.0487441	-7.31082	0
67.9586	0.0486869	-7.35729	0
67.9728	0.0487823	-7.2516	0
67.9868	0.0486487	-7.32928	0
67.9982	0.048706	-7.31782	0
68.0108	0.0487441	-7.17902	0
68.0272	0.0488014	-7.17456	0
68.054	0.0487632	-7.1561	0
68.0676	0.048706	-7.16055	0
68.0836	0.0488014	-7.19939	0
68.0938	0.048725	-7.17583	0
68.1118	0.0486678	-7.36748	0
68.1208	0.0488014	-7.19621	0
68.1414	0.0487823	-7.14336	0
68.1552	0.0486296	-7.75587	0
68.1642	0.048706	-7.42033	0
68.174	0.0486678	-7.3019	0
68.1842	0.0485723	-7.18666	0
68.1962	0.0486296	-7.15801	0
68.206	0.0485914	-8.0755	0
68.2178	0.048725	-7.29744	0
68.2312	0.0486678	-7.22422	0
68.2418	0.0486487	-7.24587	0
68.2524	0.048706	-7.16183	0
68.2656	0.048706	-7.12872	0
68.2792	0.0487632	-7.11853	0
68.293	0.0486296	-7.27198	0
68.306	0.048706	-7.13508	0
68.32	0.0485723	-7.12744	0
68.3346	0.048706	-7.24141	0
68.3434	0.0486678	-7.2828	0
68.3598	0.0488396	-7.35793	0
68.3718	0.0486487	-7.31273	0
68.3812	0.0486869	-7.16819	0
68.3912	0.0486678	-7.12171	0
68.402	0.0486869	-7.46172	0
68.4116	0.0486296	-7.30381	0
68.4258	0.0487632	-7.16437	0
68.44	0.048706	-7.19175	0
68.4514	0.048706	-7.16501	0
68.4646	0.0488396	-7.15801	0
68.4762	0.0488014	-7.14336	0
68.4874	0.0485532	-7.45217	0
68.4984	0.0487441	-7.71321	0
68.507	0.048725	-7.11025	0
68.524	0.0487441	-7.10261	0
68.5386	0.048725	-7.1128	0
68.5522	0.0486869	-7.1249	0
68.5638	0.0486869	-7.18984	0
68.5784	0.048725	-7.10962	0
68.591	0.0486296	-7.15546	0
68.6034	0.0488014	-7.08924	0
68.612	0.048706	-7.45598	0
68.6212	0.0486296	-7.15037	0
68.6334	0.048725	-7.11726	0
68.6464	0.0487823	-7.14718	0
68.658	0.0485723	-7.11662	0
68.6688	0.048725	-8.10097	0
68.6776	0.0486487	-7.34711	0
68.6852	0.0486487	-7.56486	0
68.6932	0.0486869	-7.93479	0
68.7006	0.0487632	-7.53303	0
68.709	0.048725	-7.36366	0
68.7172	0.0485914	-7.18284	0
68.7266	0.0486296	-7.11089	0
68.738	0.0487441	-7.09434	0
68.7494	0.0486105	-7.17647	0
68.7582	0.0486296	-7.16947	0
68.7678	0.0487441	-7.09625	0
68.7788	0.0486105	-7.16119	0
68.7896	0.0486869	-7.18093	0
68.7998	0.048706	-7.27834	0
68.8094	0.0486105	-7.20194	0
68.8178	0.0486678	-7.09688	0
68.8286	0.0486296	-7.07587	0
68.842	0.048725	-7.15482	0
68.8528	0.048725	-7.14527	0
68.8624	0.0486869	-7.31145	0
68.871	0.0486105	-7.18538	0
68.8808	0.0486678	-7.43243	0
68.8892	0.0487441	-7.24587	0
68.8982	0.0487823	-7.25797	0
68.9074	0.0487823	-7.42033	0
68.917	0.0487441	-7.21913	0
68.9246	0.0486869	-7.06887	0
68.9354	0.0486678	-7.50756	0
68.944	0.0486678	-7.16628	0
68.9524	0.0486678	-7.3401	0
68.9604	0.0487441	-7.32037	0
68.9686	0.0485914	-7.11662	0
68.9764	0.0487823	-7.30063	0
68.985	0.048725	-7.07842	0
68.9934	0.048725	-7.47636	0
69.0018	0.0487441	-7.08797	0
69.0118	0.0488587	-7.10962	0
69.0216	0.0486869	-7.06441	0
69.0324	0.0487441	-7.0746	0
69.0416	0.048725	-7.05741	0
69.0536	0.0486869	-7.0695	0
69.0622	0.048706	-7.14081	0
69.071	0.048916	-7.21913	0
69.0786	0.0486869	-7.07523	0
69.0866	0.0487823	-7.11025	0
69.0944	0.0487441	-7.29744	0
69.1026	0.048725	-7.55022	0
69.1102	0.0487823	-7.44643	0
69.1206	0.0486869	-7.2064	0
69.1308	0.048706	-7.11789	0
69.1396	0.0486678	-7.10325	0
69.1484	0.0486487	-7.27898	0
69.1576	0.0486296	-7.09306	0
69.1656	0.0486487	-7.51838	0
69.1734	0.0486869	-7.19812	0
69.1816	0.0488587	-7.15801	0
69.1906	0.0487823	-7.65145	0
69.1996	0.0486105	-7.49291	0
69.2074	0.048706	-7.07778	0
69.218	0.0486869	-7.19302	0
69.2258	0.0487441	-7.66546	0
69.2348	0.0486105	-7.17329	0
69.2422	0.0486105	-7.18793	0
69.2506	0.0486487	-7.34456	0
69.2584	0.048706	-7.47891	0
69.2678	0.0486869	-7.20703	0
69.2758	0.0486296	-7.05677	0
69.2846	0.0488014	-7.48973	0
69.293	0.048706	-7.14081	0
69.301	0.0486869	-7.14336	0
69.3102	0.048725	-7.03003	0
69.3182	0.0486105	-7.2013	0
69.3274	0.0486487	-7.08224	0
69.3354	0.0486869	-7.28025	0
69.3434	0.0487632	-8.11179	0
69.3512	0.048515	-7.41651	0
69.3586	0.0488205	-7.16692	0
69.3666	0.0487441	-7.47254	0
69.3752	0.0486869	-7.13508	0
69.3842	0.0487441	-7.09242	0
69.393	0.048706	-7.2204	0
69.402	0.0488969	-7.28853	0
69.4102	0.0486869	-7.1892	0
69.4186	0.0487441	-7.10389	0
69.4266	0.0486296	-7.37831	0
69.435	0.0486296	-7.32037	0
69.4428	0.048706	-7.2707	0
69.4528	0.048706	-7.09179	0
69.4606	0.048725	-7.20703	0
69.4692	0.048725	-7.15546	0
69.4776	0.0487441	-7.49037	0
69.4858	0.048706	-7.0746	0
69.494	0.048725	-7.17965	0
69.502	0.0486296	-7.95198	0
69.5098	0.0486296	-7.2637	0
69.5174	0.0486487	-7.42288	0
69.5252	0.0486105	-7.30891	0
69.5334	0.0487632	-7.77816	0
69.5414	0.048725	-7.33756	0
69.5492	0.0486487	-7.51011	0
69.5566	0.0486296	-8.93697	0
69.5648	0.0486869	-7.73041	0
69.5728	0.0487441	-7.27325	0
69.5812	0.0488014	-7.1892	0
69.5898	0.0487632	-7.09497	0
69.598	0.0485914	-7.09688	0
69.606	0.0487441	-7.24332	0
69.6142	0.0486678	-7.1822	0
69.622	0.0489923	-7.93097	0
69.6298	0.0485914	-7.16183	0
69.6376	0.0486487	-7.38977	0
69.645	0.0488014	-8.51037	0
69.6526	0.0488205	-7.98954	0
69.66	0.0486869	-7.83037	0
69.6676	0.048725	-8.31299	0
69.6752	0.0487632	-7.88067	0
69.6828	0.0486869	-7.31527	0
69.6906	0.0486869	-8.29898	0
69.698	0.0486678	-7.40568	0
69.7058	0.048725	-7.87175	0
69.7132	0.0485341	-7.96981	0
69.7208	0.0486678	-8.03539	0
69.7284	0.048935	-7.37258	0
69.7362	0.0487823	-7.19557	0
69.7438	0.0486487	-7.73486	0
69.7516	0.0486678	-7.38913	0
69.7594	0.0486678	-7.73932	0
69.767	0.0485341	-8.12771	0
69.775	0.0486487	-8.12835	0
69.7826	0.0486869	-7.47318	0
69.7906	0.0486678	-7.57696	0
69.7982	0.0487823	-7.48273	0
69.806	0.0485532	-7.73295	0
69.8138	0.0486678	-7.41969	0
69.8218	0.0486678	-7.35729	0
69.8296	0.0487632	-8.11434	0
69.8376	0.0488587	-8.56959	0
69.845	0.0486487	-7.5776	0
69.8528	0.0487632	-7.87175	0
69.8606	0.048706	-7.91123	0
69.8688	0.0486678	-8.01756	0
69.8768	0.0485723	-8.22704	0
69.8842	0.0488014	-7.56423	0
69.8918	0.048515	-7.45726	0
69.8994	0.0486869	-7.84501	0
69.9076	0.0485341	-8.74277	0
69.915	0.0490496	-8.11943	0
69.9226	0.048706	-7.61452	0
69.9312	0.0487823	-7.54703	0
69.9396	0.0484005	-8.29517	0
69.9474	0.0486296	-7.73614	0
69.9548	0.0486105	-7.73104	0
69.9626	0.0486869	-9.07768	0
69.9702	0.048725	-7.76351	0
69.9778	0.0485914	-9.0885	0
69.9858	0.048706	-7.91123	0
69.9936	0.0486678	-7.62344	0
70.0012	0.0485914	-7.88513	0
70.0092	0.0487441	-7.48527	0
70.0166	0.0488205	-7.59479	0
70.0246	0.0486869	-7.51265	0
70.032	0.0486678	-8.36266	0
70.0396	0.0487823	-7.56805	0
70.0472	0.0485341	-8.46135	0
70.0546	0.0488778	-8.56513	0
70.0624	0.0488587	-7.73996	0
70.07	0.0485341	-8.35693	0
70.0774	0.0486487	-7.49291	0
70.085	0.0486487	-7.94116	0
70.0924	0.0487441	-7.41715	0
70.1002	0.0488969	-7.57378	0
70.1078	0.0488396	-8.07232	0
70.1158	0.0485723	-8.06659	0
70.1232	0.0485723	-7.92014	0
70.1308	0.0488587	-7.78198	0
70.1384	0.0488014	-7.73614	0
70.1462	0.0485532	-7.78707	0
70.154	0.0486869	-7.91696	0
70.1616	0.0492978	-8.30663	0
70.169	0.0489732	-8.42505	0
70.177	0.0486678	-8.58614	0
70.1846	0.0489541	-7.87239	0
70.192	0.0488014	-8.57595	0
70.2	0.048515	-8.08633	0
70.2078	0.0486678	-7.91823	0
70.216	0.048725	-8.03985	0
70.2238	0.0486105	-8.24805	0
70.2314	0.0486678	-8.21112	0
70.239	0.0485723	-8.49382	0
70.2464	0.048706	-8.61288	0
70.254	0.048706	-8.26078	0
70.2614	0.0487632	-8.20284	0
70.2688	0.0486487	-8.53266	0
70.2762	0.0488587	-8.02138	0
70.2838	0.0488969	-8.12644	0
70.2914	0.0488014	-8.00865	0
70.2992	0.0488205	-8.14427	0
70.3072	0.0485341	-7.76606	0
70.315	0.0486296	-7.60688	0
70.3226	0.0487823	-8.24678	0
70.33	0.0484005	-7.99337	0
70.338	0.0486487	-7.79726	0
70.3456	0.048706	-7.63617	0
70.3532	0.0487823	-7.477	0
70.3608	0.0486487	-8.46262	0
70.3682	0.0486487	-7.70876	0
70.376	0.048706	-8.01119	0
70.3838	0.0486296	-7.75142	0
70.3914	0.0486487	-7.85838	0
70.399	0.0486487	-7.79981	0
70.4064	0.0489732	-7.82527	0
70.414	0.048496	-7.76606	0
70.4216	0.048725	-8.1328	0
70.4292	0.0484578	-8.22831	0
70.4368	0.0487823	-11.2387	0
70.4442	0.048706	-8.35247	0
70.4522	0.0486678	-7.77306	0
70.4598	0.0485914	-9.09041	0
70.4672	0.048725	-8.45243	0
70.4746	0.0487632	-8.73513	0
70.4828	0.0486487	-9.01783	0
70.4906	0.0485341	-9.65836	0
70.4982	0.0487823	-8.51037	0
70.5056	0.0487441	-8.44033	0
70.5132	0.0489541	-8.94461	0
70.5208	0.0486296	-9.61633	0
70.5282	0.0485914	-7.87685	0
70.5358	0.0492405	-9.00509	0
70.5434	0.0488778	-9.04584	0
70.5512	0.0486678	-8.35947	0
70.5592	0.0488205	-8.62434	0
70.5666	0.0488587	-8.54857	0
70.574	0.0488778	-8.63708	0
70.5818	0.0485914	-8.10161	0
70.5894	0.0488205	-8.55813	0
70.5972	0.0488396	-8.62625	0
70.605	0.0487632	-8.43588	0
70.6124	0.0485341	-9.09423	0
70.6198	0.0487823	-9.19738	0
70.6274	0.0488014	-8.17483	0
70.6348	0.0485723	-10.2333	0
70.6422	0.0486487	-9.36865	0
70.6496	0.0485341	-8.61034	0
70.6574	0.048725	-8.3773	0
70.6648	0.0485914	-8.3582	0
70.6724	0.0488969	-8.27734	0
70.6798	0.0486105	-9.87611	0
70.6876	0.0490305	-8.44352	0
70.695	0.0487441	-8.02265	0
70.7026	0.0487823	-9.98881	0
70.7104	0.0486487	-8.88094	0
70.7178	0.0485341	-8.47472	0
70.7256	0.0486105	-8.5906	0
70.733	0.048916	-9.1197	0
70.7404	0.0486869	-9.43678	0
70.748	0.0486869	-9.72012	0
70.7556	0.048496	-11.2514	0
70.763	0.048515	-9.11333	0
70.7706	0.048706	-8.6479	0
70.7786	0.0487823	-8.86374	0
70.786	0.0488587	-9.53356	0
70.7936	0.0487632	-8.87648	0
70.8012	0.048496	-8.66318	0
70.8086	0.0486487	-8.41487	0
70.8162	0.0486678	-8.53648	0
70.8236	0.048916	-9.8742	0
70.8312	0.0490878	-8.68801	0
70.8386	0.0488014	-9.23431	0
70.846	0.0490496	-9.41895	0
70.8534	0.0488396	-9.94742	0
70.8608	0.048935	-9.26296	0
70.8682	0.049355	-9.64562	0
70.8756	0.0485341	-9.46798	0
70.8834	0.048725	-8.57914	0
70.8912	0.0488396	-9.4839	0
70.8988	0.0486869	-8.68228	0
70.9062	0.0486105	-9.38393	0
70.9136	0.0488969	-9.09041	0
70.9212	0.048515	-8.48299	0
70.9286	0.0487632	-8.98281	0
70.9364	0.0489923	-8.69056	0
70.9438	0.048515	-8.68101	0
70.9516	0.0487823	-8.87584	0
70.959	0.0488396	-9.13371	0
70.9664	0.0488205	-8.89749	0
70.9738	0.0484005	-8.68419	0
70.9812	0.0485341	-9.91368	0
70.9886	0.048286	-9.9003	0
70.9962	0.0498323	-10.253	0
71.0036	0.0484005	-9.77742	0
71.0112	0.0483241	-12.181	0
71.0186	0.0486105	-9.54948	0
71.026	0.0494505	-10.509	0
71.0334	0.0484196	-9.98881	0
71.041	0.0487632	-9.12097	0
71.0484	0.0488205	-10.2416	0
71.0558	0.0488969	-9.1076	0
71.0632	0.0486678	-8.9567	0
71.0706	0.048515	-9.2776	0
71.0782	0.049355	-11.4399	0
71.0858	0.0485532	-9.90349	0
71.0932	0.048916	-9.87356	0
71.1008	0.0486678	-9.97225	0
71.1082	0.0484387	-10.8433	0
71.1156	0.0486869	-9.70292	0
71.123	0.0484387	-9.88502	0
71.1304	0.048706	-9.7978	0
71.1378	0.048515	-9.9678	0
71.1692	0.0486487	-9.95124	0
71.1768	0.0486487	-9.23176	0
71.2088	0.048725	-9.02356	0
71.2162	0.0483432	-10.2581	0
71.2486	0.0484769	-10.6815	0
71.256	0.0489732	-10.7242	0
71.2878	0.0485341	-11.2578	0
71.2954	0.048706	-11.061	0
71.328	0.048515	-10.8598	0
71.3354	0.0486487	-9.97353	0
71.3672	0.0488969	-10.1263	0
71.3748	0.048725	-10.5071	0
71.4072	0.0483623	-11.6423	0
71.4148	0.0485341	-10.8331	0
71.4466	0.0486678	-10.3103	0
71.4542	0.0483051	-10.7745	0
71.4866	0.0479232	-10.3441	0
71.4942	0.0485723	-11.2781	0
71.5256	0.0490687	-10.7898	0
71.5332	0.0488396	-10.8324	0
71.5656	0.048286	-10.6172	0
71.5732	0.048076	-10.8968	0
71.6052	0.0484387	-10.4294	0
71.6126	0.0486487	-10.7401	0
71.652	0.0486296	-11.6283	0
71.6842	0.0487441	-10.8636	0
71.6916	0.0490496	-12.2956	0
71.7234	0.0488205	-11.2399	0
71.7308	0.0484196	-11.3819	0
71.7638	0.0491069	-12.0957	0
71.7712	0.0484196	-12.6636	0
71.8032	0.0485723	-12.5496	0
71.8106	0.0485341	-12.8202	0
71.8432	0.048076	-13.0686	0
71.8506	0.0489541	-12.2224	0
71.8826	0.0490878	-15.1404	0
71.89	0.0494314	-12.251	0
71.9222	0.0495269	-12.2504	0
71.9298	0.048496	-11.268	0
71.9664	0.0479423	-15.0506	0
71.9738	0.0478278	-14.6667	0
72.0056	0.0484196	-15.0697	0
72.013	0.0489923	-14.4031	0
72.0436	0.0488396	-15.5377	0
72.0512	0.0484387	-16.6838	0
72.083	0.0488969	-15.6988	0
72.0904	0.0483814	-13.9555	0
72.1214	0.0490687	-15.2003	0
72.1288	0.0487441	-14.298	0
72.1612	0.0492405	-17.2715	0
72.1686	0.0481332	-14.7667	0
72.1996	0.0488587	-17.1607	0
72.207	0.0492023	-15.1525	0
72.239	0.0488587	-17.8165	0
72.2464	0.0488587	-13.4328	0
72.2772	0.0486105	-15.9554	0
72.2846	0.0491641	-16.3763	0
72.3164	0.0494123	-17.9738	0
72.3238	0.0487441	-16.8162	0
72.3548	0.0484578	-15.5383	0
72.3622	0.0490878	-22.7427	0
72.3954	0.0481141	-21.6246	0
72.4268	0.048916	-18.9486	0
72.4342	0.0483432	-17.8318	0
72.465	0.0482669	-20.3538	0
72.4724	0.049546	-18.5404	0
72.5042	0.0505578	-17.7191	0
72.5116	0.0481714	-18.7155	0
72.5428	0.0487441	-20.0335	0
72.5502	0.0477705	-22.0576	0
72.5812	0.0486105	-20.6142	0
72.5886	0.0485341	-18.62	0
72.6194	0.0492214	-17.1008	0
72.6268	0.0476178	-21.2375	0
72.6502	0.0480187	-24.5764	0
72.6576	0.0487823	-22.1499	0
72.6952	0.0475223	-23.9875	0
72.7026	0.047656	-18.4806	0
72.7344	0.0504814	-20.2965	0
72.7418	0.0479232	-22.9802	0
72.773	0.0484578	-25.5493	0
72.7806	0.0479996	-26.1917	0
72.8122	0.0480187	-23.445	0
72.8196	0.0515505	-27.6352	0
72.851	0.0496414	-23.8983	0
72.8584	0.0479996	-23.6022	0
72.8902	0.0487632	-24.2192	0
72.8976	0.048706	-23.8939	0
72.9286	0.0481141	-23.5316	0
72.936	0.0484387	-25.2462	0
72.9752	0.0509587	-24.3542	0
72.9826	0.049126	-24.8184	0
73.0136	0.0490114	-23.9913	0
73.021	0.0477514	-29.3765	0
73.0528	0.049546	-23.0324	0
73.0602	0.0499087	-25.2424	0
73.0912	0.0490878	-25.3303	0
73.123	0.048515	-28.2177	0
73.1306	0.048496	-26.7966	0
73.1622	0.0484005	-32.6002	0
73.1696	0.0467205	-26.0007	0
73.2016	0.048916	-26.3872	0
73.209	0.0491641	-27.7689	0
73.2398	0.0475414	-31.5802	0
73.2472	0.0488014	-27.1863	0
73.2794	0.0478087	-31.5961	0
73.2868	0.0507105	-33.7144	0
73.318	0.0488778	-36.3103	0
73.3254	0.0483623	-33.5081	0
73.3572	0.0486296	-29.3797	0
73.3646	0.047866	-30.7321	0
73.3954	0.0472932	-30.4736	0
73.403	0.0486105	-34.1181	0
73.4348	0.0496987	-29.1053	0
73.4422	0.0500232	-31.1727	0
73.473	0.0491641	-29.0843	0
73.4804	0.0494696	-32.5989	0
73.5114	0.0484196	-33.2917	0
73.5188	0.0498896	-34.348	0
73.5498	0.0489541	-34.3238	0
73.5572	0.049355	-34.4352	0
73.5882	0.0487632	-31.3281	0
73.5956	0.049355	-33.0032	0
73.6274	0.0473696	-38.8724	0
73.635	0.049126	-32.5015	0
73.6656	0.0480569	-40.3929	0
73.673	0.0500423	-34.1117	0
73.704	0.0481523	-30.7977	0
73.7114	0.0519705	-33.4674	0
73.7436	0.0487823	-38.9896	0
73.751	0.0466823	-32.5295	0
73.7816	0.0476941	-40.8398	0
73.789	0.0492596	-38.2179	0
73.821	0.047446	-36.225	0
73.8524	0.0483814	-38.2159	0
73.8598	0.0484387	-36.2364	0
73.8916	0.0504814	-31.7298	0
73.899	0.0516459	-33.5533	0
73.93	0.0472741	-36.551	0
73.9374	0.0474651	-44.995	0
73.9694	0.0475605	-36.9865	0
73.9768	0.0468923	-32.7218	0
74.0148	0.048916	-38.6209	0
74.0222	0.0474841	-43.23	0
74.054	0.0488014	-40.4693	0
74.0614	0.0475414	-41.6726	0
74.0934	0.0479423	-41.9101	0
74.1008	0.0453269	-42.3807	0
74.1332	0.0479805	-35.6169	0
74.1406	0.0504814	-38.6616	0
74.1724	0.0479805	-42.8875	0
74.1798	0.0475987	-42.2151	0
74.2114	0.0486678	-41.7726	0
74.2188	0.0471405	-36.2587	0
74.2508	0.0476369	-40.5718	0
74.2582	0.0476941	-42.3577	0
74.2892	0.047866	-39.5288	0
74.2966	0.0486869	-39.1054	0
74.329	0.049756	-41.8044	0
74.3364	0.0490496	-39.3251	0
74.3678	0.047656	-37.6875	0
74.3752	0.0475223	-40.5253	0
74.4072	0.0479996	-44.6989	0
74.4146	0.051665	-42.5023	0
74.446	0.0492787	-44.8409	0
74.4534	0.047885	-42.054	0
74.4856	0.0488778	-41.8191	0
74.493	0.0505959	-42.9836	0
74.5246	0.048935	-40.8214	0
74.5568	0.0487823	-40.7462	0
74.5644	0.047446	-44.4461	0
74.5956	0.049145	-40.2369	0
74.6032	0.0532687	-39.5441	0
74.635	0.0495269	-49.1832	0
74.6424	0.0455178	-51.8339	0
74.6736	0.0477514	-43.607	0
74.681	0.0452696	-41.8757	0
74.7132	0.0484387	-45.9851	0
74.7206	0.0502523	-48.6357	0
74.7518	0.0476178	-43.7992	0
74.7592	0.0507296	-47.2152	0
74.7914	0.0511496	-53.5039	0
74.7988	0.0473123	-49.6589	0
74.8304	0.0499278	-46.6931	0
74.8378	0.0471405	-52.9576	0
74.8696	0.0517605	-45.2293	0
74.877	0.0508632	-45.533	0
74.9082	0.0472169	-51.3614	0
74.9156	0.0492596	-45.4534	0
74.9482	0.0488587	-57.8176	0
74.9556	0.0458996	-48.5287	0
74.987	0.0502141	-51.8122	0
74.9944	0.0469114	-52.1478	0
75.033	0.0479614	-52.2643	0
75.0404	0.0479041	-53.9312	0
75.072	0.0496223	-55.6719	0
75.0794	0.050825	-58.085	0
75.1118	0.053135	-62.549	0
75.1192	0.0489732	-54.3094	0
75.1504	0.0490305	-58.9955	0
75.1578	0.049565	-59.1795	0
75.1896	0.0468923	-61.1361	0
75.197	0.0479232	-54.9543	0
75.229	0.0469878	-67.6076	0
75.2364	0.0461478	-60.0671	0
75.2684	0.0483814	-69.3032	0
75.2998	0.0485723	-55.7642	0
75.3072	0.0483623	-53.4084	0
75.339	0.0484196	-64.8921	0
75.3464	0.048725	-59.1923	0
75.3778	0.0506914	-66.1579	0
75.3852	0.0457087	-62.7101	0
75.418	0.0481905	-67.3001	0
75.4254	0.0483432	-71.5349	0
75.4576	0.0523523	-73.38	0
75.465	0.0456323	-68.019	0
75.496	0.048515	-65.1264	0
75.5034	0.0477323	-71.0726	0
75.5354	0.0505196	-79.593	0
75.543	0.0502141	-67.7273	0
75.5748	0.0510732	-64.8704	0
75.5822	0.0475223	-64.2847	0
75.6146	0.0502905	-70.9389	0
75.622	0.0487823	-71.7386	0
75.653	0.0439333	-66.9404	0
75.6604	0.0504432	-75.9943	0
75.6924	0.0463578	-77.7396	0
75.6998	0.0468541	-70.0602	0
75.7314	0.0498132	-74.833	0
75.7388	0.0473696	-75.5741	0
75.771	0.0499469	-73.4717	0
75.7784	0.0503287	-78.7042	0
75.8098	0.0489541	-82.2576	0
75.8172	0.0491832	-74.1116	0
75.8494	0.0531732	-74.8737	0
75.8568	0.0538796	-70.7364	0
75.888	0.048076	-80.4354	0
75.8954	0.0482669	-80.5493	0
75.9272	0.0508441	-79.5701	0
75.9346	0.050615	-83.0249	0
75.9668	0.0498323	-83.072	0
75.998	0.0485532	-70.8084	0
76.0054	0.0464341	-90.9334	0
76.0444	0.0442196	-84.4078	0
76.0518	0.0490687	-76.3872	0
76.0834	0.0500041	-75.9963	0
76.091	0.0496987	-79.4606	0
76.123	0.0501378	-73.8875	0
76.1306	0.0504432	-80.5837	0
76.1616	0.0485532	-79.2982	0
76.169	0.0494314	-73.9174	0
76.2012	0.0503669	-79.7872	0
76.2086	0.0490687	-85.1101	0
76.2404	0.0464914	-80.471	0
76.2478	0.0457087	-86.0263	0
76.28	0.0478278	-93.0759	0
76.2874	0.047885	-85.3679	0
76.3192	0.0498514	-87.3768	0
76.3266	0.0500614	-81.1873	0
76.358	0.0494123	-90.5113	0
76.3654	0.0482669	-98.1097	0
76.4028	0.0481905	-90.6179	0
76.4102	0.0491069	-91.7647	0
76.4344	0.0487823	-92.0386	0
76.4418	0.0483051	-79.3155	0
76.4732	0.0480378	-83.272	0
76.4806	0.0492596	-89.2162	0
76.5122	0.0475414	-99.1743	0
76.5196	0.0492405	-99.0341	0
76.5518	0.048916	-92.0195	0
76.5592	0.0483051	-95.7084	0
76.5906	0.048496	-91.6118	0
76.598	0.0477896	-89.2162	0
76.63	0.0490114	-95.3898	0
76.6374	0.0497369	-98.8111	0
76.6688	0.0480187	-104.781	0
76.6762	0.0488778	-103.526	0
76.7088	0.0488778	-95.632	0
76.7402	0.0481523	-97.0909	0
76.7476	0.0490114	-101.474	0
76.7788	0.0474078	-101.525	0
76.7862	0.049546	-103.175	0
76.818	0.0487632	-101.449	0
76.8254	0.0484196	-89.057	0
76.8566	0.0491641	-105.711	0
76.864	0.0482096	-104.348	0
76.8954	0.0494123	-101.442	0
76.9028	0.0479996	-103.169	0
76.9342	0.0492596	-98.6328	0
76.9416	0.0478087	-97.8236	0
76.973	0.0490687	-100.57	0
76.9804	0.0479423	-105.093	0
77.0126	0.0474841	-115.083	0
77.02	0.0492214	-109.419	0
77.0596	0.0493932	-111.464	0
77.067	0.0486869	-103.214	0
77.0992	0.049145	-100.92	0
77.1066	0.0488205	-101.997	0
77.138	0.0479232	-104.857	0
77.1454	0.0505959	-107.157	0
77.1776	0.0483241	-105.208	0
77.185	0.0485723	-106.941	0
77.2166	0.0479041	-103.876	0
77.224	0.0500805	-98.448	0
77.2562	0.049565	-102.819	0
77.2636	0.048076	-99.34	0
77.2952	0.048515	-102.5	0
77.3026	0.0487632	-98.9386	0
77.3348	0.0475605	-92.765	0
77.3422	0.0490496	-104.634	0
77.3734	0.0475223	-102.277	0
77.3808	0.0497178	-102.71	0
77.413	0.0481141	-105.354	0
77.4444	0.0479996	-111.687	0
77.4518	0.0491069	-106.291	0
77.4842	0.0482669	-104.978	0
77.4916	0.0494887	-108.979	0
77.523	0.0482096	-101.27	0
77.5304	0.049355	-112.038	0
77.5618	0.0490114	-113.388	0
77.5692	0.0488014	-110.528	0
77.6012	0.0485341	-109.081	0
77.6086	0.050195	-108.323	0
77.6398	0.048725	-110.693	0
77.6472	0.0484769	-104.258	0
77.6796	0.0481141	-102.092	0
77.687	0.0483432	-107.157	0
77.7182	0.0491069	-112.267	0
77.7256	0.0496796	-99.5693	0
77.757	0.0491069	-109.999	0
77.7644	0.0480378	-112.936	0
77.7962	0.0490878	-115.312	0
77.8036	0.0484769	-107.692	0
77.8354	0.0480187	-110.642	0
77.8428	0.0506532	-111.98	0
77.8748	0.0481141	-109.432	0
77.8822	0.048496	-121.652	0
77.914	0.0483432	-110.171	0
77.9214	0.0498705	-111.655	0
77.9528	0.0484387	-110.649	0
77.9602	0.0486296	-111.19	0
77.9916	0.0481332	-104.838	0
77.999	0.0483241	-112.707	0
78.0304	0.0492023	-116.204	0
78.0378	0.0482096	-118.122	0
78.078	0.048916	-121.091	0
78.0854	0.0481141	-129.501	0
78.117	0.0500614	-112.452	0
78.1246	0.0475223	-114.758	0
78.1564	0.0473887	-121.798	0
78.1876	0.0481523	-127.475	0
78.195	0.0491069	-119.294	0
78.2272	0.0497941	-118.262	0
78.2346	0.0492787	-121.167	0
78.2664	0.0491641	-117.568	0
78.2738	0.0492023	-111.362	0
78.3056	0.049756	-119.447	0
78.313	0.0482287	-112.197	0
78.3446	0.048515	-117.262	0
78.352	0.0476369	-115.848	0
78.3832	0.0478469	-110.63	0
78.3906	0.0488396	-108.1	0
78.4242	0.0483241	-111.35	0
78.4316	0.0469305	-122.99	0
78.4632	0.0475605	-109.935	0
78.4706	0.0479041	-107.935	0
78.5024	0.0482096	-115.382	0
78.5098	0.048515	-107.527	0
78.542	0.0496605	-125.239	0
78.5494	0.0475796	-114.095	0
78.5806	0.0475796	-119.09	0
78.588	0.049336	-118.759	0
78.6206	0.0491069	-117.803	0
78.628	0.0488969	-114.701	0
78.6594	0.0489541	-119.033	0
78.6668	0.0485914	-114.032	0
78.6986	0.0470451	-110.681	0
78.706	0.0490687	-114.427	0
78.7376	0.0477323	-117.861	0
78.745	0.0497941	-123.831	0
78.7772	0.0487632	-128.462	0
78.7846	0.0485914	-116.975	0
78.8162	0.0484196	-103.666	0
78.8236	0.0485914	-101.799	0
78.8558	0.0492787	-108.521	0
78.8872	0.0490878	-114.662	0
78.8946	0.0471787	-120.696	0
78.9268	0.0481714	-105.412	0
78.9342	0.0478087	-120.275	0
78.9656	0.048515	-114.573	0
78.973	0.0499087	-112.732	0
79.005	0.0483051	-118.606	0
79.0124	0.0497178	-128.195	0
79.0442	0.0487823	-121.308	0
79.0516	0.0499469	-128.921	0
79.0902	0.0496414	-113.197	0
79.0976	0.0486296	-115.535	0
79.129	0.049336	-123.996	0
79.1364	0.0496414	-122.894	0
79.1686	0.0480569	-119.18	0
79.176	0.0500614	-132.189	0
79.2074	0.0488587	-116.37	0
79.2148	0.0490687	-130.45	0
79.248	0.0494123	-130.928	0
79.2556	0.0481714	-124.385	0
79.2884	0.0485341	-134.719	0
79.2958	0.0483623	-130.132	0
79.3286	0.0468351	-117.428	0
79.336	0.047656	-118.211	0
79.3678	0.0488396	-123.608	0
79.3752	0.0491069	-126.812	0
79.4078	0.048916	-129.526	0
79.4152	0.0488587	-125.659	0
79.447	0.0499469	-142.014	0
79.4544	0.0480187	-136.413	0
79.4868	0.0483432	-128.596	0
79.4942	0.0487823	-128.137	0
79.5268	0.0477514	-139.65	0
79.5342	0.0479805	-132.712	0
79.5666	0.048496	-136.394	0
79.574	0.0475605	-134.324	0
79.6058	0.0490305	-150.029	0
79.6384	0.0483814	-138.936	0
79.6458	0.0492405	-136.261	0
79.6778	0.0495078	-141.141	0
79.6852	0.0486487	-151.679	0
79.7176	0.0492405	-138.72	0
79.725	0.048725	-139.363	0
79.757	0.0476178	-152.227	0
79.7644	0.0473314	-146.983	0
79.7968	0.0481905	-144.454	0
79.8042	0.0495841	-157.846	0
79.8358	0.0498514	-134.438	0
79.8432	0.048935	-147.372	0
79.876	0.0490114	-139.682	0
79.8834	0.0479232	-145.397	0
79.9154	0.0494887	-135.26	0
79.9228	0.0477705	-134.375	0
79.9558	0.0482478	-135.248	0
79.9632	0.0492023	-139.121	0
79.995	0.048496	-151.188	0
80.0024	0.0479423	-151.57	0
80.0348	0.0477896	-129.692	0
80.0422	0.0487632	-132.954	0
80.0742	0.0495078	-142.39	0
80.0816	0.0500805	-144.052	0
80.1214	0.0493932	-129.208	0
80.1288	0.0476178	-138.663	0
80.161	0.049126	-139.605	0
80.1684	0.048095	-140.886	0
80.2002	0.0515314	-145.378	0
80.2076	0.0482669	-146.983	0
80.2402	0.0473123	-138.019	0
80.2476	0.0487632	-134.744	0
80.2798	0.0486487	-138.994	0
80.2872	0.049565	-143.014	0
80.32	0.0478469	-140.153	0
80.3518	0.0493932	-145.441	0
80.3592	0.0502523	-143.632	0
80.3916	0.0480378	-147.06	0
80.399	0.0485914	-132.559	0
80.4306	0.0483814	-139.943	0
80.438	0.0483051	-144.218	0
80.471	0.0492023	-146.646	0
80.4784	0.0487441	-153.342	0
80.5102	0.047885	-140.937	0
80.5176	0.048286	-149.837	0
80.55	0.050405	-151.883	0
80.5574	0.0473314	-137.739	0
80.5892	0.0481141	-149.073	0
80.5966	0.0487823	-150.111	0
80.6294	0.0471978	-168.409	0
80.6368	0.0488969	-175.354	0
80.6692	0.0489541	-160.12	0
80.6766	0.048725	-155.858	0
80.7084	0.049985	-172.754	0
80.7158	0.0485723	-167.256	0
80.7486	0.051035	-147.142	0
80.756	0.0511114	-153.883	0
80.7878	0.0488587	-166.447	0
80.7952	0.0454605	-162.714	0
80.8278	0.0486296	-158.368	0
80.8352	0.0475605	-153.533	0
80.867	0.0510159	-155.024	0
80.8744	0.0461478	-175.201	0
80.9068	0.0499659	-162.879	0
80.9142	0.0491832	-156.425	0
80.9458	0.0488778	-158.337	0
80.9532	0.0494123	-167.485	0
80.9858	0.0494314	-158.375	0
80.9932	0.0485723	-149.863	0
81.0252	0.0495841	-177.584	0
81.0326	0.0483814	-174.698	0
81.0646	0.0505196	-145.754	0
81.0968	0.048286	-151.711	0
81.1042	0.0497178	-155.552	0
81.1442	0.0496032	-159.082	0
81.1516	0.0486678	-149.978	0
81.184	0.048286	-155.769	0
81.1914	0.048286	-151.354	0
81.2226	0.0468732	-145.556	0
81.23	0.0498132	-151.742	0
81.2622	0.0494123	-151.825	0
81.2696	0.0493741	-146.556	0
81.2936	0.048515	-148.092	0
81.301	0.0485914	-163.854	0
81.3388	0.0498514	-171.71	0
81.3462	0.049546	-155.221	0
81.3702	0.0480187	-159.356	0
81.3776	0.0489732	-162.65	0
81.4014	0.0494887	-152.813	0
81.4088	0.047446	-164.746	0
81.433	0.0495269	-152.246	0
81.4404	0.0508632	-155.673	0
81.466	0.0495078	-172.965	0
81.4734	0.0496223	-160.694	0
81.4974	0.0472169	-157.827	0
81.5048	0.0493741	-165.963	0
81.53	0.048706	-154.501	0
81.5374	0.0476751	-161.987	0
81.6052	0.0485914	-139.79	0
81.6126	0.0490878	-146.474	0
81.6452	0.0473505	-163.739	0
81.6526	0.0500041	-168.473	0
81.684	0.0471596	-166.893	0
81.6916	0.0489541	-165.045	0
81.7236	0.0506723	-155.833	0
81.731	0.0518941	-164.236	0
81.7626	0.0490114	-175.341	0
81.7946	0.0497369	-171.557	0
81.802	0.0482096	-161.917	0
81.8336	0.0472741	-176.475	0
81.841	0.0483623	-171.251	0
81.873	0.0488205	-172.92	0
81.8806	0.0504623	-171.601	0
81.9114	0.0476751	-173.149	0
81.9188	0.0485914	-165.829	0
81.9502	0.0475414	-172.213	0
81.9576	0.0501569	-168.893	0
81.9896	0.0488205	-160.815	0
81.997	0.050195	-165.013	0
82.0282	0.0481905	-163.281	0
82.0356	0.0490496	-174.067	0
82.0676	0.0481523	-173.704	0
82.075	0.0506532	-173.353	0
82.107	0.0503859	-186.943	0
82.1144	0.0468732	-179.138	0
82.1534	0.0489541	-173.258	0
82.1608	0.0458232	-173.118	0
82.1922	0.0466441	-184.828	0
82.1996	0.0530777	-170.123	0
82.2324	0.0499278	-175.475	0
82.2398	0.0481332	-165.682	0
82.271	0.0521996	-166.492	0
82.2784	0.0497941	-165.74	0
82.3104	0.0496796	-170.384	0
82.3178	0.0505005	-177.01	0
82.3496	0.0527914	-172.92	0
82.357	0.0481141	-185.07	0
82.389	0.0457278	-170.563	0
82.3964	0.0479996	-183.942	0
82.4276	0.0491641	-185.204	0
82.435	0.0481523	-188.752	0
82.4664	0.0499087	-167.422	0
82.4738	0.0467014	-190.205	0
82.506	0.0472741	-179.865	0
82.5372	0.0483623	-191.212	0
82.5446	0.0507487	-195.467	0
82.5772	0.0486487	-177.813	0
82.5846	0.0478087	-177.781	0
82.616	0.0503669	-174.15	0
82.6234	0.0464723	-172.601	0
82.6552	0.0482478	-161.771	0
82.6626	0.0475605	-202.699	0
82.6948	0.0495078	-173.207	0
82.7022	0.0485723	-169.199	0
82.734	0.0466632	-200.265	0
82.7414	0.048286	-211.727	0
82.7734	0.0474269	-183.783	0
82.7808	0.0502905	-191.492	0
82.8124	0.047866	-187.446	0
82.8198	0.0487823	-192.613	0
82.851	0.0483814	-185.42	0
82.8584	0.0485914	-186.975	0
82.8904	0.0484196	-179.954	0
82.8978	0.0468732	-190.568	0
82.9296	0.0469878	-191.364	0
82.937	0.0480378	-179.852	0
82.9684	0.0506723	-182.54	0
82.9758	0.0518559	-184.089	0
83.0082	0.0488969	-182.005	0
83.0156	0.0477132	-180.909	0
83.0468	0.0477323	-189.746	0
83.0542	0.0520087	-190.785	0
83.0864	0.0466441	-190.23	0
83.094	0.049126	-182.528	0
83.1252	0.0485723	-187.376	0
83.1326	0.051455	-197.614	0
83.1714	0.0496605	-184.178	0
83.1788	0.0490305	-210.408	0
83.2026	0.0465869	-205.381	0
83.2276	0.0452314	-188.026	0
83.235	0.0521805	-193.556	0
83.259	0.0491832	-223.5	0
83.2664	0.0472932	-210.726	0
83.2904	0.0486678	-192.479	0
83.2978	0.0481141	-209.331	0
83.3218	0.0487823	-195.748	0
83.3292	0.0479996	-204.667	0
83.354	0.0494887	-197.079	0
83.3616	0.0502714	-198.436	0
83.3852	0.0498514	-194.015	0
83.3926	0.0507296	-210.847	0
83.4168	0.0496605	-197.595	0
83.4242	0.0491641	-198.946	0
83.4482	0.049336	-201.303	0
83.4558	0.0485341	-200.743	0
83.5402	0.0476941	-189.644	0
83.5476	0.0465869	-184.592	0
83.5714	0.0474078	-186.612	0
83.5788	0.0482287	-193.499	0
83.6026	0.0510732	-194.862	0
83.61	0.0459378	-195.518	0
83.6346	0.0510732	-208.643	0
83.642	0.0450023	-197.506	0
83.6658	0.0485723	-187.21	0
83.6732	0.0476751	-191.963	0
83.6972	0.0505005	-198.627	0