File: EXPERIMENTAL-DATA/Cycling-data-Master-thesis/I-cell/2024-04-26_JP-measurements_sample-A6-02_M-cell_Cu-Li-Cellgard2400-separator_25muL-LiFSI-in-DME_outside-glovebox_sigma-0.02_added-OCV-0.1s_Deltax110.1mm_04_CP_C02.txt
time/s	Ewe/V	I/mA	error
451.927	-0.0471593	-1.94431	0
451.927	-0.0891135	-1.95951	0
451.928	-0.0978941	-1.95961	0
451.928	-0.104766	-1.95962	0
451.928	-0.110531	-1.95963	0
451.929	-0.116104	-1.95969	0
451.929	-0.121029	-1.95964	0
451.93	-0.125725	-1.95958	0
451.93	-0.130497	-1.95958	0
451.93	-0.134906	-1.95963	0
451.931	-0.13901	-1.9597	0
451.931	-0.14321	-1.95962	0
451.932	-0.147333	-1.95966	0
451.932	-0.151131	-1.95967	0
451.932	-0.154854	-1.95967	0
451.933	-0.158385	-1.95969	0
451.933	-0.162031	-1.95967	0
451.934	-0.165581	-1.95966	0
451.934	-0.168998	-1.95958	0
451.934	-0.172415	-1.95962	0
451.935	-0.175564	-1.95971	0
451.935	-0.178733	-1.95964	0
451.936	-0.18173	-1.95966	0
451.936	-0.184689	-1.9597	0
451.936	-0.187705	-1.95961	0
451.937	-0.190587	-1.95971	0
451.937	-0.193488	-1.95963	0
451.938	-0.196199	-1.95962	0
451.938	-0.199005	-1.95967	0
451.938	-0.201696	-1.95966	0
451.939	-0.204254	-1.95965	0
451.939	-0.206831	-1.9596	0
451.94	-0.209274	-1.95963	0
451.94	-0.21168	-1.95966	0
451.94	-0.214276	-1.95969	0
451.941	-0.216566	-1.95968	0
451.941	-0.218838	-1.95965	0
451.942	-0.221166	-1.95967	0
451.942	-0.223342	-1.95969	0
451.942	-0.225614	-1.95963	0
451.943	-0.227752	-1.95967	0
451.944	-0.232085	-1.95967	0
451.944	-0.235883	-1.95965	0
451.945	-0.238995	-1.95967	0
451.946	-0.241858	-1.95969	0
451.946	-0.245599	-1.95966	0
451.947	-0.249093	-1.95969	0
451.948	-0.251841	-1.95963	0
451.949	-0.255125	-1.9596	0
451.949	-0.258408	-1.95968	0
451.95	-0.261595	-1.95965	0
451.951	-0.264707	-1.95968	0
451.952	-0.26778	-1.95968	0
451.953	-0.270681	-1.95968	0
451.953	-0.273468	-1.95965	0
451.954	-0.27616	-1.95967	0
451.955	-0.278775	-1.95968	0
451.956	-0.281295	-1.9597	0
451.957	-0.28391	-1.9597	0
451.957	-0.286162	-1.95969	0
451.958	-0.288567	-1.95973	0
451.959	-0.290877	-1.9597	0
451.96	-0.292977	-1.95966	0
451.961	-0.295115	-1.95962	0
451.962	-0.297787	-1.95966	0
451.963	-0.300211	-1.95969	0
451.964	-0.302616	-1.95967	0
451.965	-0.304964	-1.95968	0
451.966	-0.307503	-1.95966	0
451.967	-0.310118	-1.95969	0
451.968	-0.312542	-1.95971	0
451.969	-0.314871	-1.95966	0
451.971	-0.3172	-1.95961	0
451.972	-0.319242	-1.95969	0
451.973	-0.321323	-1.95968	0
451.974	-0.323594	-1.95969	0
451.976	-0.325923	-1.95966	0
451.977	-0.328214	-1.95966	0
451.979	-0.330409	-1.9597	0
451.981	-0.332604	-1.95975	0
451.982	-0.334646	-1.95971	0
451.984	-0.336861	-1.95964	0
451.986	-0.339132	-1.95965	0
451.988	-0.341308	-1.95966	0
451.991	-0.34358	-1.95966	0
451.993	-0.345851	-1.9596	0
451.996	-0.348027	-1.95965	0
451.999	-0.350127	-1.9597	0
452.003	-0.352303	-1.9597	0
452.007	-0.354479	-1.95966	0
452.011	-0.356617	-1.95967	0
452.016	-0.358698	-1.95963	0
452.022	-0.360759	-1.95964	0
452.029	-0.363031	-1.95963	0
452.037	-0.365073	-1.95969	0
452.047	-0.367135	-1.95967	0
452.061	-0.36933	-1.95965	0
452.079	-0.371449	-1.95973	0
452.106	-0.373529	-1.95967	0
452.142	-0.375591	-1.95967	0
452.178	-0.377614	-1.95968	0
452.213	-0.379657	-1.95969	0
452.247	-0.381718	-1.9597	0
452.282	-0.383856	-1.95968	0
452.32	-0.385898	-1.95969	0
452.357	-0.388017	-1.95965	0
452.399	-0.390136	-1.95969	0
452.442	-0.392179	-1.95971	0
452.491	-0.394278	-1.95969	0
452.543	-0.396454	-1.9597	0
452.599	-0.398516	-1.9597	0
452.657	-0.400539	-1.95969	0
452.723	-0.402601	-1.95967	0
452.796	-0.404643	-1.95976	0
452.875	-0.406762	-1.95965	0
452.966	-0.408785	-1.95967	0
453.064	-0.410866	-1.95969	0
453.182	-0.412966	-1.95969	0
453.306	-0.414989	-1.95968	0
453.444	-0.417032	-1.95965	0
453.593	-0.419055	-1.9597	0
453.753	-0.421097	-1.95969	0
453.934	-0.423159	-1.95969	0
454.119	-0.42522	-1.95969	0
454.32	-0.427263	-1.95965	0
454.517	-0.429286	-1.95974	0
454.737	-0.431386	-1.95964	0
454.966	-0.433428	-1.95969	0
455.19	-0.43549	-1.9597	0
455.432	-0.437532	-1.95971	0
455.673	-0.439575	-1.95968	0
455.932	-0.441694	-1.95974	0
456.196	-0.443717	-1.95972	0
456.455	-0.44574	-1.95962	0
456.733	-0.44784	-1.9597	0
457.022	-0.449921	-1.95969	0
457.316	-0.451944	-1.95972	0
457.616	-0.453987	-1.9597	0
457.918	-0.45601	-1.95963	0
458.232	-0.458052	-1.95969	0
458.547	-0.460095	-1.95966	0
458.897	-0.462156	-1.95976	0
459.28	-0.46418	-1.9597	0
459.644	-0.466432	-1.95972	0
460.042	-0.468494	-1.95972	0
460.414	-0.470517	-1.9597	0
460.806	-0.472598	-1.95975	0
461.219	-0.474621	-1.95963	0
461.633	-0.476644	-1.95969	0
462.069	-0.478668	-1.95974	0
462.525	-0.480748	-1.95966	0
462.995	-0.482791	-1.95974	0
463.482	-0.484871	-1.9597	0
463.958	-0.486895	-1.95969	0
464.523	-0.488975	-1.95972	0
465.115	-0.490999	-1.9597	0
465.758	-0.493041	-1.95972	0
466.409	-0.495122	-1.95973	0
467.188	-0.497164	-1.9597	0
468.164	-0.499245	-1.95972	0
469.103	-0.501287	-1.95973	0
470.416	-0.50333	-1.95966	0
472.536	-0.505372	-1.95967	0
477.71	-0.503292	-1.95975	0
479.399	-0.501268	-1.95974	0
480.655	-0.499226	-1.95969	0
481.794	-0.497202	-1.9597	0
482.763	-0.495141	-1.95981	0
483.704	-0.493022	-1.95969	0
484.579	-0.490961	-1.95969	0
485.366	-0.488899	-1.95974	0
486.099	-0.486742	-1.95971	0
486.868	-0.484604	-1.9597	0
487.659	-0.482524	-1.95973	0
488.373	-0.480481	-1.95969	0
489.04	-0.478458	-1.95972	0
489.721	-0.476396	-1.95976	0
490.421	-0.474354	-1.95974	0
491.078	-0.472292	-1.95969	0
491.742	-0.470269	-1.95971	0
492.4	-0.468245	-1.95974	0
493.024	-0.466203	-1.95967	0
493.649	-0.464141	-1.95975	0
494.301	-0.461985	-1.95969	0
494.95	-0.459942	-1.95968	0
495.604	-0.457842	-1.95969	0
496.243	-0.455781	-1.95972	0
496.851	-0.453719	-1.95976	0
497.482	-0.451677	-1.95976	0
498.102	-0.449634	-1.95965	0
498.755	-0.447516	-1.95972	0
499.404	-0.445416	-1.95967	0
500.076	-0.443373	-1.95976	0
500.711	-0.44135	-1.95969	0
501.354	-0.439308	-1.95973	0
501.997	-0.437265	-1.95965	0
502.686	-0.435185	-1.95976	0
503.354	-0.433104	-1.95974	0
504.035	-0.431004	-1.95973	0
504.693	-0.428924	-1.9597	0
505.364	-0.426843	-1.95969	0
506.054	-0.4248	-1.95972	0
506.736	-0.422777	-1.95971	0
507.404	-0.420696	-1.95969	0
508.126	-0.418673	-1.95975	0
508.818	-0.416631	-1.95974	0
509.547	-0.414588	-1.95965	0
510.275	-0.412527	-1.95973	0
511.001	-0.410484	-1.95977	0
511.761	-0.408423	-1.95972	0
512.492	-0.40638	-1.95974	0
513.298	-0.404242	-1.95977	0
514.065	-0.402219	-1.95974	0
514.854	-0.400196	-1.95976	0
515.652	-0.398115	-1.95974	0
516.476	-0.396092	-1.95974	0
517.274	-0.394049	-1.95973	0
518.088	-0.391988	-1.95971	0
518.97	-0.389888	-1.95972	0
519.835	-0.387865	-1.95972	0
520.713	-0.385803	-1.95972	0
521.592	-0.383703	-1.95972	0
522.526	-0.38168	-1.95972	0
523.386	-0.379618	-1.95969	0
524.234	-0.377595	-1.95973	0
525.104	-0.375572	-1.95967	0
526.028	-0.373548	-1.95975	0
526.953	-0.371487	-1.95972	0
527.863	-0.369425	-1.95968	0
528.749	-0.367326	-1.95974	0
529.623	-0.365302	-1.95973	0
530.298	-0.360129	-1.95978	0
530.303	-0.355529	-1.95977	0
530.306	-0.351826	-1.95966	0
530.317	-0.351654	-1.95973	0
530.318	-0.354307	-1.95975	0
530.32	-0.353907	-1.95973	0
530.321	-0.358125	-1.95974	0
530.322	-0.357724	-1.95972	0
530.325	-0.360225	-1.9597	0
530.338	-0.359919	-1.95968	0
530.339	-0.355071	-1.95966	0
530.341	-0.351788	-1.95969	0
530.351	-0.349669	-1.95972	0
530.357	-0.346977	-1.95975	0
530.367	-0.349249	-1.95969	0
530.371	-0.348791	-1.95978	0
530.377	-0.343446	-1.95973	0
530.379	-0.340831	-1.9597	0
530.39	-0.343293	-1.95974	0
530.392	-0.339285	-1.95972	0
530.396	-0.337128	-1.95968	0
530.4	-0.340449	-1.95963	0
530.402	-0.337032	-1.9597	0
530.404	-0.334475	-1.9597	0
530.407	-0.332089	-1.95976	0
530.423	-0.329893	-1.95976	0
530.429	-0.332031	-1.95972	0
530.431	-0.328538	-1.95972	0
530.44	-0.328481	-1.95965	0
530.443	-0.33102	-1.9597	0
530.444	-0.334608	-1.95973	0
530.446	-0.334742	-1.95977	0
530.448	-0.333463	-1.9597	0
530.449	-0.334341	-1.95972	0
530.452	-0.336784	-1.95965	0
530.453	-0.336956	-1.95968	0
530.456	-0.336078	-1.95969	0
530.457	-0.338369	-1.9597	0
530.458	-0.34085	-1.95969	0
530.463	-0.340774	-1.95974	0
530.463	-0.33772	-1.95973	0
530.466	-0.335448	-1.95972	0
530.466	-0.328767	-1.95976	0
530.467	-0.325045	-1.95977	0
530.469	-0.322583	-1.9597	0
530.471	-0.320025	-1.95964	0
530.484	-0.317791	-1.95972	0
530.488	-0.315253	-1.95974	0
530.498	-0.315348	-1.95972	0
530.5	-0.317811	-1.95964	0
530.503	-0.319987	-1.95976	0
530.507	-0.317791	-1.9598	0
530.508	-0.313439	-1.95976	0
530.511	-0.310843	-1.95972	0
530.52	-0.310862	-1.95971	0
530.527	-0.307942	-1.95969	0
530.535	-0.310175	-1.95968	0
530.538	-0.312256	-1.95973	0
530.542	-0.309946	-1.95981	0
530.543	-0.309908	-1.95978	0
530.544	-0.313229	-1.95969	0
530.551	-0.311435	-1.95969	0
530.554	-0.313668	-1.95971	0
530.555	-0.310442	-1.95973	0
530.557	-0.306567	-1.95969	0
530.568	-0.302654	-1.95971	0
530.575	-0.302559	-1.95973	0
530.576	-0.301929	-1.95973	0
530.58	-0.299161	-1.95976	0
530.583	-0.296241	-1.9597	0
530.595	-0.295744	-1.95974	0
530.599	-0.292576	-1.95973	0
530.609	-0.292328	-1.95974	0
530.613	-0.294389	-1.95974	0
530.622	-0.296642	-1.95977	0
530.625	-0.298722	-1.95971	0
530.627	-0.29855	-1.95972	0
530.63	-0.301127	-1.95969	0
530.631	-0.303647	-1.95973	0
530.632	-0.307045	-1.9597	0
530.634	-0.309316	-1.9597	0
530.636	-0.311588	-1.95973	0
530.637	-0.313764	-1.95977	0
530.639	-0.308305	-1.95969	0
530.646	-0.307961	-1.95966	0
530.649	-0.310633	-1.9597	0
530.65	-0.314585	-1.9597	0
530.651	-0.313783	-1.95974	0
530.651	-0.307503	-1.95975	0
530.656	-0.307255	-1.95975	0
530.659	-0.304143	-1.95972	0
530.66	-0.302005	-1.95975	0
530.668	-0.299829	-1.95975	0
530.671	-0.296584	-1.95974	0
530.673	-0.292919	-1.95979	0
530.683	-0.293015	-1.95974	0
530.694	-0.293034	-1.95967	0
530.699	-0.292919	-1.95968	0
530.703	-0.292652	-1.95972	0
530.706	-0.289655	-1.95969	0
530.715	-0.288586	-1.95977	0
530.72	-0.286448	-1.95972	0
530.735	-0.288663	-1.95969	0
530.737	-0.290972	-1.95972	0
530.74	-0.293454	-1.95967	0
530.741	-0.295687	-1.95972	0
530.749	-0.293091	-1.9597	0
530.757	-0.289808	-1.95975	0
530.761	-0.289827	-1.95975	0
530.77	-0.292251	-1.95972	0
530.775	-0.29206	-1.95972	0
530.781	-0.291869	-1.95973	0
530.784	-0.291526	-1.95973	0
530.788	-0.291335	-1.95974	0
530.791	-0.286945	-1.95972	0
530.797	-0.284673	-1.95974	0
530.806	-0.282898	-1.95974	0
530.81	-0.280455	-1.9597	0
530.817	-0.282612	-1.95968	0
530.82	-0.282306	-1.95967	0
530.822	-0.280016	-1.95976	0
530.825	-0.276542	-1.95977	0
530.829	-0.274098	-1.9597	0
530.842	-0.276332	-1.95972	0
530.843	-0.273068	-1.95974	0
530.848	-0.27301	-1.95971	0
530.858	-0.272991	-1.9597	0
530.861	-0.270758	-1.95972	0
530.867	-0.26694	-1.9597	0
530.87	-0.26925	-1.95971	0
530.873	-0.266673	-1.9597	0
530.879	-0.26904	-1.95974	0
530.883	-0.266635	-1.9597	0
530.887	-0.266138	-1.95972	0
530.892	-0.265699	-1.95978	0
530.897	-0.264974	-1.95973	0
530.904	-0.263848	-1.95971	0
530.91	-0.260966	-1.95974	0
530.922	-0.260278	-1.95974	0
530.93	-0.262397	-1.95972	0
530.939	-0.261195	-1.9597	0
530.942	-0.263294	-1.95972	0
530.945	-0.265623	-1.95972	0
530.95	-0.26778	-1.9597	0
530.955	-0.269918	-1.95976	0
530.957	-0.266558	-1.9597	0
530.958	-0.264115	-1.95974	0
530.96	-0.261252	-1.95968	0
530.966	-0.258885	-1.95975	0
530.977	-0.258599	-1.9597	0
530.986	-0.258541	-1.95974	0
530.99	-0.260889	-1.95971	0
530.992	-0.260469	-1.9597	0
530.997	-0.259839	-1.95972	0
531.004	-0.259629	-1.95969	0
531.011	-0.259591	-1.9597	0
531.012	-0.257224	-1.95976	0
531.014	-0.254113	-1.95974	0
531.018	-0.251116	-1.95974	0
531.023	-0.249035	-1.9597	0
531.028	-0.245256	-1.95979	0
531.031	-0.241877	-1.95971	0
531.034	-0.239644	-1.95969	0
531.036	-0.236552	-1.9597	0
531.051	-0.232982	-1.9597	0
531.059	-0.232887	-1.95976	0
531.066	-0.234948	-1.9597	0
531.07	-0.236972	-1.95976	0
531.075	-0.236647	-1.95973	0
531.082	-0.236647	-1.9597	0
531.088	-0.238709	-1.95964	0
531.09	-0.234585	-1.95979	0
531.097	-0.231951	-1.95972	0
531.102	-0.234051	-1.95974	0
531.109	-0.236704	-1.95967	0
531.111	-0.23449	-1.9597	0
531.12	-0.234242	-1.95974	0
531.125	-0.23176	-1.95971	0
531.134	-0.231665	-1.95972	0
531.142	-0.229012	-1.95977	0
531.144	-0.226358	-1.95973	0
531.161	-0.22403	-1.95979	0
531.165	-0.219887	-1.95977	0
531.166	-0.217311	-1.95972	0
531.194	-0.21733	-1.95973	0
531.197	-0.213913	-1.9597	0
531.216	-0.213455	-1.9597	0
531.221	-0.215574	-1.95972	0
531.226	-0.215402	-1.95973	0
531.228	-0.213283	-1.95976	0
531.234	-0.210439	-1.95975	0
531.243	-0.212538	-1.95976	0
531.252	-0.211909	-1.95976	0
531.26	-0.209809	-1.95971	0
531.282	-0.209713	-1.95968	0
531.295	-0.209732	-1.95972	0
531.305	-0.211909	-1.95972	0
531.314	-0.209732	-1.95971	0
531.317	-0.206831	-1.95971	0
531.332	-0.209026	-1.9597	0
531.338	-0.209007	-1.95971	0
531.354	-0.211126	-1.95973	0
531.376	-0.208587	-1.95969	0
531.402	-0.208415	-1.95972	0
531.412	-0.21063	-1.9597	0
531.419	-0.212729	-1.95976	0
531.424	-0.215058	-1.95967	0
531.43	-0.214409	-1.95976	0
531.441	-0.214485	-1.95977	0
531.45	-0.211985	-1.95974	0
531.465	-0.209942	-1.95974	0
531.48	-0.209523	-1.95969	0
531.494	-0.206927	-1.95971	0
531.515	-0.206736	-1.95969	0
531.527	-0.203911	-1.95965	0
531.538	-0.20099	-1.9597	0
531.545	-0.198528	-1.95964	0
531.549	-0.196447	-1.95976	0
531.556	-0.196504	-1.95967	0
531.57	-0.194233	-1.9597	0
531.573	-0.192152	-1.95973	0
531.605	-0.19198	-1.95972	0
531.614	-0.19177	-1.95972	0
531.628	-0.193794	-1.95974	0
531.636	-0.19597	-1.95976	0
531.648	-0.193393	-1.95972	0
531.651	-0.193584	-1.95972	0
531.656	-0.193966	-1.95977	0
531.696	-0.194004	-1.95976	0
531.702	-0.191618	-1.95977	0
531.746	-0.191465	-1.95972	0
531.767	-0.189403	-1.95973	0
531.773	-0.186941	-1.95969	0
531.783	-0.18488	-1.9597	0
531.866	-0.18465	-1.95972	0
531.902	-0.184536	-1.95972	0
531.928	-0.186655	-1.9597	0
531.931	-0.183791	-1.95977	0
531.947	-0.181329	-1.95973	0
531.98	-0.179287	-1.95971	0
532.008	-0.176958	-1.95974	0
532.025	-0.174572	-1.95972	0
532.044	-0.174591	-1.95968	0
532.076	-0.176748	-1.95976	0
532.079	-0.174095	-1.95976	0
532.088	-0.171976	-1.95974	0
532.14	-0.169323	-1.95972	0
532.152	-0.16728	-1.95971	0
532.157	-0.165009	-1.95972	0
532.179	-0.161859	-1.95973	0
532.252	-0.161897	-1.95972	0
532.326	-0.163959	-1.95973	0
532.35	-0.161878	-1.95972	0
532.457	-0.159778	-1.95971	0
532.508	-0.159855	-1.95969	0
532.544	-0.159817	-1.95971	0
532.566	-0.159874	-1.95977	0
532.656	-0.157641	-1.95971	0
532.753	-0.159683	-1.95975	0
532.801	-0.157564	-1.95973	0
532.834	-0.155369	-1.95973	0
532.897	-0.155369	-1.95974	0
532.928	-0.157507	-1.95969	0
532.958	-0.155312	-1.95974	0
532.995	-0.157583	-1.9597	0
533.015	-0.155102	-1.95968	0
533.042	-0.15304	-1.95969	0
533.092	-0.150979	-1.95978	0
533.18	-0.150979	-1.95972	0
533.308	-0.148917	-1.9597	0
533.342	-0.146856	-1.95974	0
533.41	-0.144832	-1.95974	0
533.526	-0.142503	-1.95969	0
533.695	-0.140423	-1.95967	0
533.775	-0.140499	-1.95966	0
533.844	-0.14048	-1.95972	0
533.883	-0.138438	-1.95972	0
534.053	-0.136376	-1.9597	0
534.093	-0.134315	-1.9597	0
534.199	-0.132253	-1.95967	0
534.419	-0.132272	-1.9597	0
534.572	-0.1321	-1.95976	0
534.652	-0.129848	-1.95972	0
534.913	-0.127786	-1.9597	0
535.06	-0.125668	-1.9597	0
535.524	-0.123472	-1.95971	0
536.14	-0.123511	-1.95977	0
536.575	-0.123492	-1.95972	0
536.787	-0.123396	-1.95974	0
537.024	-0.125439	-1.95969	0
537.865	-0.127462	-1.9597	0
538.24	-0.1254	-1.95973	0
538.923	-0.127424	-1.95967	0
539.263	-0.127347	-1.95967	0
539.515	-0.129485	-1.95972	0
539.608	-0.131566	-1.95969	0
539.725	-0.129543	-1.95969	0
540.544	-0.129562	-1.95976	0
541.043	-0.131585	-1.95974	0
541.19	-0.131528	-1.95977	0
541.514	-0.133551	-1.95975	0
541.745	-0.133494	-1.95967	0
542.147	-0.133494	-1.9597	0
542.918	-0.135632	-1.95974	0
543.122	-0.137808	-1.95969	0
543.201	-0.13777	-1.95965	0
543.367	-0.13777	-1.95971	0
543.9	-0.139793	-1.9597	0
544.217	-0.141893	-1.95972	0
544.419	-0.143992	-1.95974	0
545.155	-0.146016	-1.9597	0
545.477	-0.146111	-1.9597	0
545.723	-0.148192	-1.95968	0
545.934	-0.148096	-1.95973	0
546.245	-0.148096	-1.9597	0
546.521	-0.148115	-1.95974	0
546.815	-0.147982	-1.95969	0
547.174	-0.150024	-1.95976	0
547.262	-0.152181	-1.9597	0
547.608	-0.154243	-1.95975	0
548.153	-0.156323	-1.95976	0
548.275	-0.154281	-1.95968	0
548.417	-0.156343	-1.95969	0
548.604	-0.15848	-1.9597	0
548.701	-0.15848	-1.95978	0
548.983	-0.160561	-1.95973	0
549.274	-0.162603	-1.95973	0
549.431	-0.164627	-1.9597	0
549.668	-0.16455	-1.95971	0
549.926	-0.16226	-1.95965	0
550.18	-0.164436	-1.95969	0
550.231	-0.164398	-1.95974	0
550.386	-0.162164	-1.95972	0
550.693	-0.162184	-1.95976	0
550.772	-0.16205	-1.9597	0
550.798	-0.164092	-1.95967	0
550.853	-0.164207	-1.95967	0
550.959	-0.166249	-1.95967	0
551.288	-0.166268	-1.95971	0
551.489	-0.166211	-1.95968	0
551.687	-0.168311	-1.95974	0
551.743	-0.168349	-1.95972	0
551.85	-0.16623	-1.95975	0
551.876	-0.161477	-1.95972	0
551.895	-0.159378	-1.95973	0
552.056	-0.157354	-1.95972	0
552.227	-0.159492	-1.95967	0
552.33	-0.161535	-1.95973	0
552.418	-0.160504	-1.95974	0
552.419	-0.157431	-1.95972	0
552.455	-0.15493	-1.95972	0
552.503	-0.152907	-1.95974	0
552.569	-0.150864	-1.95979	0
552.576	-0.148593	-1.95973	0
552.7	-0.146302	-1.95978	0
552.835	-0.144126	-1.9597	0
553.147	-0.141988	-1.95971	0
553.314	-0.139927	-1.95967	0
553.402	-0.139869	-1.95974	0
553.436	-0.141988	-1.95974	0
553.711	-0.14405	-1.95976	0
554.039	-0.141396	-1.95971	0
554.381	-0.141435	-1.95972	0
554.389	-0.143801	-1.95973	0
554.562	-0.143821	-1.9597	0
554.753	-0.141778	-1.95966	0
554.813	-0.143954	-1.95972	0
554.992	-0.143572	-1.95976	0
555.068	-0.143611	-1.95969	0
555.147	-0.141263	-1.95981	0
555.148	-0.137712	-1.95971	0
555.159	-0.135613	-1.95971	0
555.205	-0.13357	-1.9597	0
555.693	-0.131547	-1.95972	0
555.964	-0.12918	-1.95972	0
556.151	-0.12918	-1.95975	0
556.284	-0.131203	-1.95971	0
556.442	-0.131184	-1.95973	0
556.567	-0.128989	-1.95978	0
556.876	-0.126927	-1.95972	0
556.989	-0.124904	-1.95968	0
557.222	-0.12708	-1.95967	0
557.276	-0.126927	-1.95979	0
557.42	-0.126794	-1.9597	0
558.571	-0.126317	-1.95981	0
558.756	-0.124236	-1.95974	0
559.209	-0.124007	-1.9598	0
559.394	-0.121945	-1.95969	0
559.555	-0.119712	-1.95978	0
559.605	-0.11767	-1.9597	0
560.125	-0.113966	-1.9597	0
560.235	-0.116085	-1.95973	0
560.655	-0.116143	-1.95971	0
560.765	-0.114119	-1.95972	0
560.849	-0.112058	-1.95972	0
561.009	-0.109958	-1.95972	0
561.288	-0.107915	-1.95973	0
561.986	-0.105854	-1.9597	0
563.3	-0.107954	-1.95969	0
563.595	-0.107992	-1.95972	0
564.24	-0.108087	-1.9597	0
564.783	-0.108087	-1.95976	0
565.207	-0.110168	-1.95976	0
565.417	-0.110168	-1.9597	0
565.663	-0.110168	-1.95964	0
565.8	-0.108049	-1.95977	0
566.484	-0.11013	-1.95969	0
567.144	-0.110206	-1.95968	0
567.518	-0.110149	-1.95971	0
567.926	-0.112229	-1.95978	0
568.862	-0.110149	-1.95976	0
569.051	-0.108087	-1.95973	0
570.081	-0.110149	-1.95972	0
570.647	-0.108049	-1.9597	0
570.97	-0.110149	-1.95969	0
571.588	-0.110168	-1.95974	0
572.374	-0.107782	-1.95972	0
572.996	-0.107801	-1.95974	0
573.677	-0.109862	-1.9597	0
574.007	-0.111924	-1.95972	0
574.224	-0.111905	-1.95975	0
574.737	-0.113947	-1.95972	0
575.068	-0.116066	-1.95972	0
575.154	-0.113947	-1.95974	0
575.511	-0.115971	-1.95974	0
576.145	-0.116066	-1.95974	0
576.808	-0.116715	-1.95967	0
576.896	-0.11641	-1.95976	0
577.257	-0.118796	-1.95969	0
577.303	-0.118796	-1.95974	0
577.307	-0.116753	-1.95972	0
577.49	-0.11662	-1.95968	0
577.516	-0.11662	-1.95963	0
577.543	-0.116677	-1.95976	0
577.566	-0.116868	-1.9597	0
577.59	-0.116906	-1.9597	0
577.703	-0.119178	-1.9597	0
577.745	-0.119063	-1.95974	0
577.759	-0.119082	-1.95963	0
577.833	-0.118987	-1.95963	0
577.93	-0.118891	-1.9597	0
577.956	-0.116792	-1.95968	0
578.13	-0.118834	-1.95973	0
578.228	-0.118643	-1.95974	0
578.419	-0.118624	-1.9597	0
578.585	-0.118643	-1.95972	0
578.63	-0.118643	-1.95973	0
578.668	-0.118548	-1.9597	0
578.839	-0.118529	-1.95971	0
578.967	-0.118529	-1.95968	0
579.169	-0.118548	-1.95976	0
579.377	-0.116486	-1.95977	0
579.412	-0.116448	-1.95969	0
579.469	-0.11641	-1.95968	0
579.512	-0.116181	-1.95975	0
579.572	-0.116238	-1.95968	0
579.63	-0.116276	-1.95974	0
579.67	-0.116238	-1.95974	0
579.74	-0.118376	-1.95974	0
579.791	-0.1183	-1.95976	0
579.898	-0.120418	-1.9597	0
580.268	-0.120399	-1.95972	0
580.904	-0.12248	-1.95972	0
581.132	-0.122403	-1.95967	0
581.226	-0.120285	-1.95973	0
581.294	-0.120304	-1.95972	0
581.319	-0.117937	-1.95972	0
581.363	-0.117899	-1.95973	0
581.417	-0.117803	-1.9597	0
581.473	-0.117822	-1.95974	0
581.531	-0.117765	-1.95969	0
581.673	-0.117708	-1.95969	0
581.723	-0.117918	-1.9597	0
581.765	-0.117994	-1.95969	0
581.817	-0.117899	-1.95972	0
581.873	-0.117899	-1.95972	0
581.932	-0.11788	-1.95978	0
581.997	-0.117822	-1.95972	0
582.116	-0.117975	-1.95966	0
582.159	-0.118223	-1.95975	0
582.229	-0.118185	-1.95971	0
582.279	-0.118471	-1.95967	0
582.356	-0.118624	-1.95974	0
582.583	-0.118681	-1.95974	0
582.972	-0.121067	-1.9597	0
583.61	-0.123129	-1.95976	0
584.104	-0.12519	-1.95972	0
584.352	-0.127214	-1.95972	0
584.401	-0.127233	-1.95969	0
584.791	-0.129256	-1.95976	0
585.436	-0.13128	-1.95976	0
585.574	-0.13336	-1.95974	0
585.932	-0.135441	-1.95973	0
586.239	-0.137674	-1.95967	0
586.443	-0.139774	-1.95973	0
586.582	-0.139793	-1.95975	0
586.625	-0.137693	-1.95974	0
586.643	-0.13777	-1.9597	0
586.722	-0.139927	-1.95975	0
586.889	-0.139831	-1.95972	0
586.96	-0.139869	-1.95972	0
586.996	-0.13985	-1.95974	0
587.06	-0.137731	-1.95972	0
587.407	-0.137731	-1.95969	0
587.711	-0.139907	-1.95974	0
587.864	-0.142045	-1.95972	0
588.005	-0.142179	-1.95969	0
588.033	-0.14006	-1.95971	0
588.078	-0.137636	-1.95967	0
588.274	-0.135613	-1.95969	0
588.515	-0.135594	-1.95976	0
588.993	-0.133551	-1.95965	0
589.658	-0.133532	-1.95977	0
590.034	-0.131299	-1.9597	0
590.332	-0.131623	-1.9597	0
590.465	-0.131623	-1.95972	0
590.606	-0.133704	-1.95969	0
590.962	-0.131623	-1.95973	0
592.513	-0.133647	-1.95975	0
592.66	-0.133666	-1.95967	0
594.373	-0.135746	-1.95975	0
595.628	-0.135727	-1.95976	0
595.982	-0.133666	-1.95972	0
596.44	-0.131413	-1.95978	0
597.101	-0.129027	-1.95974	0
597.29	-0.126584	-1.95974	0
597.55	-0.12456	-1.95972	0
597.801	-0.124389	-1.95974	0
598.276	-0.124312	-1.9597	0
598.353	-0.122213	-1.95968	0
598.434	-0.122155	-1.95974	0
599.029	-0.12164	-1.95977	0
599.658	-0.121602	-1.95972	0
600.093	-0.12164	-1.95969	0
600.868	-0.121697	-1.95974	0
601.451	-0.123911	-1.95971	0
602.111	-0.126145	-1.9597	0
602.707	-0.124064	-1.95972	0
603.102	-0.126126	-1.95971	0
603.63	-0.123969	-1.95965	0
603.688	-0.121583	-1.95974	0
603.959	-0.120896	-1.95967	0
604.556	-0.118815	-1.95981	0
604.703	-0.120934	-1.95969	0
605.706	-0.123033	-1.95967	0
606.885	-0.125095	-1.95972	0
607.316	-0.127118	-1.95974	0
607.974	-0.125038	-1.9598	0
608.325	-0.125019	-1.95974	0
608.695	-0.122976	-1.95968	0
608.753	-0.120762	-1.95969	0
609.428	-0.120724	-1.95971	0
609.773	-0.122747	-1.95971	0
610.043	-0.124809	-1.95972	0
610.11	-0.126832	-1.95971	0
610.579	-0.129008	-1.95973	0
610.841	-0.131413	-1.95971	0
610.983	-0.131413	-1.95964	0
611.646	-0.129218	-1.95973	0
612.192	-0.131432	-1.95974	0
612.755	-0.13126	-1.9597	0
612.887	-0.13126	-1.95969	0
613.515	-0.131222	-1.9597	0
613.858	-0.133322	-1.95972	0
614.75	-0.135823	-1.95974	0
615.116	-0.135727	-1.95974	0
615.663	-0.135441	-1.95968	0
615.891	-0.13525	-1.95968	0
616.134	-0.137331	-1.95967	0
616.464	-0.137331	-1.95975	0
616.668	-0.13943	-1.95973	0
616.897	-0.139831	-1.9597	0
617.297	-0.141912	-1.95972	0
617.671	-0.143935	-1.95974	0
617.999	-0.143611	-1.95975	0
618.102	-0.141492	-1.95972	0
618.185	-0.141492	-1.95971	0
618.263	-0.141587	-1.95965	0
618.71	-0.143611	-1.95972	0
619.19	-0.145691	-1.9597	0
619.876	-0.144584	-1.95972	0
620.382	-0.146703	-1.95973	0
620.68	-0.146646	-1.95969	0
620.938	-0.146168	-1.95981	0
621.623	-0.146092	-1.95973	0
621.939	-0.143916	-1.95974	0
622.328	-0.141854	-1.95976	0
622.397	-0.139163	-1.95965	0
622.85	-0.136853	-1.95972	0
623.719	-0.138915	-1.95974	0
624.103	-0.138896	-1.95974	0
624.341	-0.141015	-1.95974	0
625.278	-0.143057	-1.95974	0
625.488	-0.14508	-1.95969	0
625.874	-0.142141	-1.95973	0
625.884	-0.140079	-1.95972	0
626.389	-0.140098	-1.95972	0
627.021	-0.142465	-1.95971	0
627.413	-0.14258	-1.95972	0
627.717	-0.144603	-1.95969	0
628.307	-0.146627	-1.95972	0
628.47	-0.146588	-1.95967	0
628.733	-0.146531	-1.95972	0
629.575	-0.148574	-1.95974	0
629.739	-0.148574	-1.95974	0
630.205	-0.150597	-1.9597	0
630.504	-0.152639	-1.95972	0
630.693	-0.150292	-1.9597	0
631.209	-0.152544	-1.95967	0
631.37	-0.152277	-1.95974	0
631.461	-0.1497	-1.95974	0
631.775	-0.147486	-1.95974	0
631.927	-0.148192	-1.95975	0