File: EXPERIMENTAL-DATA/Cycling-data-Master-thesis/I-cell/2024-04-24_JP-measurements_sample-A4-01_M-cell_Cu-Li-Cellgard2400-separator_25muL-LiFSI-in-DME_outside-glovebox_sigma-0.02_added-OCV-0.1s_Deltax110.4mm_04_CP_C11.txt
time/s	Ewe/V	I/mA	error
3961.45	0.00834288	-0.019471	0
3961.45	0.005349	-0.01959	0
3961.46	0.00315391	-0.0195945	0
3961.48	0.000996985	-0.0195862	0
3961.5	-0.00104541	-0.0195849	0
3961.52	-0.00306871	-0.0195925	0
3961.54	-0.00511111	-0.01959	0
3961.56	-0.00722985	-0.0195932	0
3961.59	-0.00936768	-0.0195894	0
3961.61	-0.0114101	-0.0195862	0
3961.64	-0.0135288	-0.0195913	0
3961.67	-0.015743	-0.0195906	0
3961.7	-0.0178618	-0.0195932	0
3961.73	-0.0199041	-0.0195945	0
3961.76	-0.0220229	-0.0195862	0
3961.79	-0.0240844	-0.0195881	0
3961.82	-0.026184	-0.0195862	0
3961.86	-0.0282837	-0.0195855	0
3961.89	-0.0304024	-0.0195894	0
3961.93	-0.0325212	-0.0195875	0
3961.97	-0.0345636	-0.0195906	0
3962	-0.0367205	-0.0195913	0
3962.04	-0.0388011	-0.0195945	0
3962.09	-0.0409198	-0.01959	0
3962.13	-0.0430195	-0.0195945	0
3962.17	-0.0451764	-0.0195862	0
3962.22	-0.0472379	-0.0195881	0
3962.26	-0.0492803	-0.0195894	0
3962.31	-0.0513417	-0.0195862	0
3962.36	-0.053365	-0.0195887	0
3962.41	-0.0554456	-0.0195919	0
3962.46	-0.0575644	-0.0195894	0
3962.52	-0.0596258	-0.0195906	0
3962.57	-0.0616682	-0.0195919	0
3962.63	-0.0636915	-0.0195894	0
3962.7	-0.0657721	-0.0195945	0
3962.76	-0.0677954	-0.0195919	0
3962.83	-0.0698951	-0.0195938	0
3962.9	-0.0719184	-0.0195945	0
3962.98	-0.0739989	-0.0195894	0
3963.07	-0.076175	-0.0195919	0
3963.16	-0.0781983	-0.0195906	0
3963.25	-0.0802216	-0.0195894	0
3963.36	-0.082264	-0.0195862	0
3963.49	-0.0844018	-0.0195836	0
3963.65	-0.0864442	-0.01959	0
3963.88	-0.0884866	-0.0195875	0
3964.54	-0.0884293	-0.019597	0
3964.78	-0.086406	-0.0195919	0
3964.95	-0.0843445	-0.01959	0
3965.11	-0.082283	-0.0195906	0
3965.24	-0.0802597	-0.0195938	0
3965.38	-0.0781983	-0.0195945	0
3965.52	-0.0761177	-0.0195938	0
3965.66	-0.0740753	-0.01959	0
3965.81	-0.0719375	-0.0195849	0
3965.97	-0.0699142	-0.0195881	0
3966.14	-0.0678908	-0.0195951	0
3966.33	-0.0658103	-0.0195875	0
3966.54	-0.063787	-0.0195887	0
3966.77	-0.0617637	-0.0195938	0
3967.06	-0.0597213	-0.0195945	0
3967.4	-0.0576598	-0.0195875	0
3967.83	-0.0556365	-0.0195919	0
3968.28	-0.053575	-0.0195913	0
3968.43	-0.0515135	-0.0195945	0
3969.31	-0.049433	-0.0195919	0
3971.29	-0.0473906	-0.0195875	0
3974.08	-0.0453482	-0.0195964	0
3977.85	-0.0433249	-0.0195957	0
3985.83	-0.0412825	-0.0195945	0
3997.53	-0.0392592	-0.0195919	0
4016.43	-0.0375031	-0.01959	0
4036.43	-0.0361288	-0.0195976	0
4056.43	-0.0350217	-0.0195919	0
4076.43	-0.0340673	-0.0195894	0
4096.43	-0.0332274	-0.0195894	0
4116.43	-0.0324066	-0.0195875	0
4136.43	-0.0319485	-0.0195925	0
4156.43	-0.031395	-0.0195932	0
4176.43	-0.0310705	-0.0195945	0
4196.43	-0.0304597	-0.0195983	0
4216.43	-0.0300779	-0.0195919	0
4236.43	-0.0296771	-0.0195925	0
4256.43	-0.0293335	-0.0196002	0
4276.43	-0.0290472	-0.0195995	0
4296.43	-0.0286464	-0.0195983	0
4316.43	-0.0285127	-0.0196021	0
4336.43	-0.0282837	-0.01959	0
4356.43	-0.028131	-0.0195906	0
4376.43	-0.0279783	-0.01959	0
4396.43	-0.027692	-0.0195862	0
4416.43	-0.027482	-0.0195836	0
4436.43	-0.0273866	-0.0195945	0
4456.43	-0.0274056	-0.0195951	0
4476.43	-0.0270812	-0.0195989	0
4496.43	-0.0269475	-0.0195894	0
4516.43	-0.0269475	-0.0195913	0
4536.43	-0.0268903	-0.0195913	0
4556.43	-0.026623	-0.0195925	0
4576.43	-0.0265085	-0.0195957	0
4596.43	-0.0264703	-0.0195938	0
4616.43	-0.0261077	-0.0195906	0
4636.43	-0.0260504	-0.01959	0
4656.43	-0.0260313	-0.0195906	0
4676.43	-0.0259359	-0.0195957	0
4696.43	-0.0259359	-0.0195919	0
4716.43	-0.0258214	-0.0195919	0
4736.43	-0.0258214	-0.0195906	0
4756.43	-0.0257068	-0.0195932	0
4776.43	-0.0255541	-0.0195906	0
4796.43	-0.025535	-0.0195925	0
4816.43	-0.025516	-0.0195957	0
4836.43	-0.0254396	-0.0195894	0
4856.43	-0.0254014	-0.0195925	0
4876.43	-0.0254205	-0.019597	0
4896.43	-0.0252296	-0.0195925	0
4916.43	-0.0251342	-0.0195976	0
4936.43	-0.0250197	-0.0195951	0
4956.43	-0.0250578	-0.0195938	0
4976.43	-0.0250006	-0.0195906	0
4996.43	-0.0250388	-0.0195932	0
5016.43	-0.0249242	-0.0195957	0
5036.43	-0.0248288	-0.0195925	0
5056.43	-0.0248097	-0.0195951	0
5076.43	-0.0246952	-0.01959	0
5096.43	-0.0247334	-0.0195938	0
5116.43	-0.0246379	-0.0195875	0
5136.43	-0.024657	-0.0195932	0
5156.43	-0.0244661	-0.0195906	0
5176.43	-0.0246188	-0.0195945	0
5196.43	-0.0246761	-0.0195976	0
5216.43	-0.0246379	-0.0195938	0
5236.43	-0.0245997	-0.0195862	0
5256.43	-0.0243516	-0.0195894	0
5276.43	-0.0243516	-0.0195932	0
5296.43	-0.0242943	-0.0195913	0
5316.43	-0.0242562	-0.0195906	0
5336.43	-0.0242371	-0.0195894	0
5356.43	-0.0243707	-0.0195906	0
5376.43	-0.0242943	-0.0195989	0
5396.43	-0.0241989	-0.0195875	0
5416.43	-0.0241225	-0.0195983	0
5436.43	-0.0241225	-0.0195855	0
5456.43	-0.0241989	-0.0195957	0
5476.43	-0.0241416	-0.0195964	0
5491.85	-0.02313	-0.0195964	0
5492.18	-0.02313	-0.0195868	0
5502.9	-0.0241989	-0.0195983	0
5522.9	-0.0241607	-0.0195932	0
5542.9	-0.0240844	-0.0195906	0
5562.9	-0.0240271	-0.0195938	0
5582.9	-0.0241416	-0.0195913	0
5602.9	-0.0240653	-0.0195983	0
5622.9	-0.0240271	-0.0195945	0
5642.9	-0.0240271	-0.0195881	0
5662.9	-0.0240462	-0.0195938	0
5682.9	-0.0239698	-0.019597	0
5702.9	-0.0239126	-0.0196002	0
5722.9	-0.0238935	-0.0195881	0
5742.9	-0.0239126	-0.0195906	0
5762.9	-0.0238935	-0.0195938	0
5782.9	-0.0238935	-0.0195894	0
5802.9	-0.0239508	-0.0195945	0
5822.9	-0.0237026	-0.0195957	0
5842.9	-0.0237981	-0.0195925	0
5862.9	-0.0237599	-0.0195945	0
5882.9	-0.0237408	-0.0195945	0
5902.9	-0.023779	-0.0195938	0
5922.9	-0.0236644	-0.0195906	0
5942.9	-0.0235499	-0.0195925	0
5962.9	-0.0235881	-0.0195945	0
5982.9	-0.0236835	-0.0195964	0
6002.9	-0.0237217	-0.0195913	0
6022.9	-0.023569	-0.0195887	0
6042.9	-0.0235881	-0.0195932	0
6062.9	-0.0236835	-0.0195881	0
6082.9	-0.0236644	-0.0195983	0
6102.9	-0.0235881	-0.0195945	0
6122.9	-0.0235499	-0.0195932	0
6142.9	-0.0235881	-0.0195957	0
6162.9	-0.0235117	-0.0195913	0
6182.9	-0.0234736	-0.0195983	0
6202.9	-0.0235117	-0.0195913	0
6222.9	-0.0234926	-0.0195957	0
6242.9	-0.0234545	-0.0195945	0
6262.9	-0.0234545	-0.01959	0
6282.9	-0.0234545	-0.0195976	0
6302.9	-0.0234926	-0.0195875	0
6322.9	-0.0234354	-0.0195919	0
6342.9	-0.0233781	-0.0195938	0
6362.9	-0.0233018	-0.0196008	0
6382.9	-0.0234163	-0.0195894	0
6402.9	-0.023359	-0.0195913	0
6422.9	-0.0233781	-0.0195957	0
6442.9	-0.023359	-0.0195995	0
6462.9	-0.0232636	-0.0195868	0
6482.9	-0.0233018	-0.0195932	0
6502.9	-0.0233018	-0.0195964	0
6522.9	-0.0233209	-0.0195945	0
6542.9	-0.0231682	-0.0195932	0
6562.9	-0.0233399	-0.0195951	0
6582.9	-0.0233972	-0.0195881	0
6602.9	-0.0233972	-0.0195932	0
6622.9	-0.0233399	-0.0195868	0
6642.9	-0.0232827	-0.0195932	0
6662.9	-0.0233209	-0.0195894	0
6682.9	-0.0232445	-0.0195925	0
6702.9	-0.0233018	-0.0195976	0
6722.9	-0.0232063	-0.0195925	0
6742.9	-0.0233018	-0.0195925	0
6762.9	-0.0232063	-0.0195925	0
6782.9	-0.0230536	-0.0195906	0
6802.9	-0.0231491	-0.0195887	0
6822.9	-0.0231872	-0.0195925	0
6842.9	-0.0232827	-0.0195913	0
6862.9	-0.0231682	-0.0195868	0
6882.9	-0.02313	-0.0195919	0
6902.9	-0.0230727	-0.0195957	0
6922.9	-0.0231109	-0.0195913	0
6942.9	-0.0231491	-0.0195925	0
6962.9	-0.0231682	-0.0196014	0
6982.9	-0.0232254	-0.0195894	0
7002.9	-0.0229773	-0.0195957	0
7022.9	-0.0232254	-0.01959	0
7042.9	-0.0229964	-0.0196008	0
7062.9	-0.0229391	-0.0195906	0
7082.9	-0.0230918	-0.0195989	0
7102.9	-0.0229964	-0.0195983	0
7122.9	-0.0231491	-0.0195951	0
7142.9	-0.0229773	-0.0195862	0
7162.9	-0.02313	-0.0195881	0
7182.9	-0.0229964	-0.0195875	0
7202.9	-0.0230345	-0.0195875	0
7222.9	-0.0229964	-0.0195913	0
7242.9	-0.02313	-0.0195976	0
7262.9	-0.0228818	-0.0195945	0
7282.9	-0.0229009	-0.0195951	0
7302.9	-0.0229964	-0.0195945	0
7322.9	-0.0229582	-0.0195964	0
7342.9	-0.0229964	-0.0195964	0
7362.9	-0.0231109	-0.0195894	0
7382.9	-0.0229391	-0.0195919	0
7402.9	-0.0230155	-0.0195964	0
7422.9	-0.0229391	-0.0195906	0
7442.9	-0.0229773	-0.0195925	0
7462.9	-0.0228246	-0.0195887	0
7482.9	-0.0228628	-0.0195989	0
7502.9	-0.0229391	-0.0195957	0
7522.9	-0.0227864	-0.0195913	0
7542.9	-0.0229964	-0.0195849	0
7562.9	-0.0229391	-0.0195951	0
7582.9	-0.0228055	-0.0195906	0
7602.9	-0.0229391	-0.0195868	0
7622.9	-0.0229009	-0.0195919	0
7642.9	-0.0228437	-0.0195925	0
7662.9	-0.0228246	-0.0195843	0
7682.9	-0.0228437	-0.019597	0
7702.9	-0.0227291	-0.0195945	0
7722.9	-0.0228818	-0.0195964	0
7742.9	-0.0228437	-0.0195932	0
7762.9	-0.0228246	-0.0195881	0
7782.9	-0.0228818	-0.0195964	0
7802.9	-0.0229773	-0.0195938	0
7822.9	-0.0228246	-0.0195925	0
7842.9	-0.0229391	-0.019597	0
7862.9	-0.0228437	-0.0195932	0
7882.9	-0.0228246	-0.0195887	0
7902.9	-0.0228246	-0.01959	0
7922.9	-0.0227864	-0.0195945	0
7942.9	-0.0228246	-0.0195945	0
7962.9	-0.0229391	-0.0195836	0
7982.9	-0.0228246	-0.0196014	0
8002.9	-0.0228055	-0.0195976	0
8022.9	-0.0229391	-0.0195951	0
8042.9	-0.0227673	-0.0195964	0
8062.9	-0.0229009	-0.0195938	0
8082.9	-0.0227864	-0.0195964	0
8102.9	-0.0227482	-0.0195938	0
8122.9	-0.0227482	-0.0195976	0
8142.9	-0.0228246	-0.0195964	0
8162.9	-0.0227864	-0.0195919	0
8182.9	-0.0228628	-0.0195957	0
8202.9	-0.0229391	-0.0196002	0
8222.9	-0.0227864	-0.0195976	0
8242.9	-0.0228246	-0.0195925	0
8262.9	-0.0228246	-0.0195964	0
8282.9	-0.0227864	-0.0195957	0
8302.9	-0.0228055	-0.0195951	0
8322.9	-0.0228628	-0.0195932	0
8342.9	-0.0227291	-0.0195913	0
8362.9	-0.0227864	-0.0195887	0
8382.9	-0.0227673	-0.0195951	0
8402.9	-0.0227101	-0.0195894	0
8422.9	-0.0227673	-0.0195855	0
8442.9	-0.0228628	-0.0195887	0
8462.9	-0.0228055	-0.0195964	0
8482.9	-0.0227101	-0.0195875	0
8502.9	-0.0228437	-0.0195976	0
8522.9	-0.0227864	-0.0195938	0
8542.9	-0.0228055	-0.0195957	0
8562.9	-0.0227101	-0.0195995	0
8582.9	-0.0227482	-0.0195894	0
8602.9	-0.0228628	-0.0195951	0
8622.9	-0.0227101	-0.0195849	0
8642.9	-0.0227101	-0.0195906	0
8662.9	-0.0227291	-0.01959	0
8682.9	-0.0228055	-0.0195964	0
8702.9	-0.022691	-0.0195976	0
8722.9	-0.0226528	-0.0195875	0
8742.9	-0.0227482	-0.0195957	0
8762.9	-0.0227101	-0.0195919	0
8782.9	-0.0227673	-0.019597	0
8802.9	-0.0228055	-0.019597	0
8822.9	-0.0226337	-0.0195932	0
8842.9	-0.0226146	-0.0195868	0
8862.9	-0.0227101	-0.0195919	0
8882.9	-0.0226146	-0.0195951	0
8902.9	-0.022691	-0.0195957	0
8922.9	-0.0226146	-0.0195989	0
8942.9	-0.0226337	-0.0195906	0
8962.9	-0.0226719	-0.0195957	0
8982.9	-0.0226719	-0.0195913	0
9002.9	-0.0225573	-0.0195964	0
9022.9	-0.0227864	-0.0195925	0
9042.9	-0.0225383	-0.0195945	0
9062.9	-0.0226719	-0.0196008	0
9082.9	-0.0226719	-0.0195957	0
9102.9	-0.0226528	-0.0195964	0
9122.9	-0.0227101	-0.0196002	0
9142.9	-0.0225383	-0.0195945	0
9162.9	-0.0226146	-0.0195938	0
9182.9	-0.0225573	-0.0195951	0
9202.9	-0.0226528	-0.0195938	0
9222.9	-0.0225573	-0.0195983	0
9242.9	-0.0225955	-0.0195919	0
9262.9	-0.0226528	-0.0195989	0
9282.9	-0.0225383	-0.0195925	0
9302.9	-0.0225001	-0.0195919	0
9322.9	-0.0225573	-0.0195881	0
9342.9	-0.0225192	-0.0195964	0
9362.9	-0.0225955	-0.0195964	0
9382.9	-0.0226146	-0.0195925	0
9402.9	-0.0225383	-0.01959	0
9422.9	-0.0225764	-0.0195881	0
9442.9	-0.0226528	-0.0195957	0
9462.9	-0.0226337	-0.0195976	0
9482.9	-0.0225764	-0.0195919	0
9502.9	-0.0225573	-0.0195945	0
9522.9	-0.0225383	-0.019597	0
9542.9	-0.0226146	-0.0195951	0
9562.9	-0.022481	-0.0195951	0
9582.9	-0.0224428	-0.0195932	0
9602.9	-0.0225955	-0.0195945	0
9622.9	-0.0225383	-0.0195945	0
9642.9	-0.0225001	-0.0195951	0
9662.9	-0.0225764	-0.0195894	0
9682.9	-0.0225192	-0.0195976	0
9702.9	-0.0225955	-0.0195995	0
9722.9	-0.0225192	-0.0195881	0
9742.9	-0.0225192	-0.0195913	0
9762.9	-0.0224619	-0.0195976	0
9782.9	-0.022481	-0.0195951	0
9802.9	-0.0225955	-0.0195913	0
9822.9	-0.0225383	-0.0195906	0
9842.9	-0.0225955	-0.0196002	0
9862.9	-0.0225383	-0.0195913	0
9882.9	-0.0226146	-0.0195938	0
9902.9	-0.0225001	-0.0195887	0
9922.9	-0.022481	-0.0195983	0
9942.9	-0.0224619	-0.0195989	0
9962.9	-0.0225573	-0.0195913	0
9982.9	-0.0224619	-0.0195932	0
10002.9	-0.0225001	-0.0195957	0
10022.9	-0.0225573	-0.0195976	0
10042.9	-0.0225001	-0.0195945	0
10062.9	-0.0225192	-0.0196002	0
10082.9	-0.0224428	-0.0195868	0
10102.9	-0.0225955	-0.0195855	0
10122.9	-0.0225383	-0.0195925	0
10142.9	-0.0223856	-0.0195894	0
10162.9	-0.0225001	-0.0195957	0
10182.9	-0.022481	-0.0195887	0
10202.9	-0.0225001	-0.0195887	0
10222.9	-0.0223856	-0.0195945	0
10242.9	-0.0225573	-0.0195951	0
10262.9	-0.0223856	-0.0195964	0
10282.9	-0.0225192	-0.01959	0
10302.9	-0.0226337	-0.0195938	0
10322.9	-0.0223665	-0.0195925	0
10342.9	-0.0225192	-0.0195894	0
10362.9	-0.022481	-0.0195932	0
10382.9	-0.0224619	-0.0195925	0
10402.9	-0.0225001	-0.0195919	0
10422.9	-0.0224428	-0.0195945	0
10442.9	-0.0222901	-0.0195945	0
10462.9	-0.0224046	-0.0195932	0
10482.9	-0.0223856	-0.0195919	0
10502.9	-0.0224619	-0.0195875	0
10522.9	-0.0223665	-0.0195983	0
10542.9	-0.0225001	-0.0196034	0
10562.9	-0.0225383	-0.0195919	0
10582.9	-0.0223092	-0.0195957	0
10602.9	-0.0224428	-0.0196014	0
10622.9	-0.0223283	-0.0195951	0
10642.9	-0.0224237	-0.0196002	0
10662.9	-0.0224046	-0.0195964	0
10682.9	-0.0223665	-0.0195938	0
10702.9	-0.0225001	-0.0195964	0
10722.9	-0.0224428	-0.0195964	0
10742.9	-0.0223856	-0.0195913	0
10762.9	-0.0224237	-0.0195894	0
10782.9	-0.0224046	-0.0195887	0
10802.9	-0.0224237	-0.0195976	0
10822.9	-0.0224046	-0.019597	0
10842.9	-0.0223665	-0.0195919	0
10862.9	-0.0224619	-0.0195964	0
10882.9	-0.022481	-0.0195932	0
10902.9	-0.0222329	-0.0195964	0
10922.9	-0.0224046	-0.0195951	0
10942.9	-0.022271	-0.0195906	0
10962.9	-0.0223283	-0.0195938	0
10982.9	-0.0225383	-0.0195887	0
11002.9	-0.0223665	-0.0195976	0
11022.9	-0.0223474	-0.0195906	0
11042.9	-0.0224237	-0.0195932	0
11062.9	-0.0223283	-0.0196027	0
11082.9	-0.0223283	-0.0195957	0
11102.9	-0.0223474	-0.0195881	0
11122.9	-0.0222901	-0.0196002	0
11142.9	-0.0223283	-0.0195925	0
11162.9	-0.0221947	-0.01959	0
11182.9	-0.0222519	-0.0195957	0
11202.9	-0.0223474	-0.0195906	0
11222.9	-0.0223092	-0.0195964	0
11242.9	-0.0223665	-0.0195881	0
11262.9	-0.0223474	-0.0195932	0
11282.9	-0.0222329	-0.01959	0
11302.9	-0.0224237	-0.0195919	0
11322.9	-0.0222519	-0.0195906	0
11342.9	-0.0223474	-0.0195925	0
11362.9	-0.0224428	-0.0196014	0
11382.9	-0.0222519	-0.0195938	0
11402.9	-0.0222519	-0.0195925	0
11422.9	-0.0223665	-0.0195989	0
11442.9	-0.0222901	-0.0195881	0
11462.9	-0.0223474	-0.0195945	0
11482.9	-0.022271	-0.0195976	0
11502.9	-0.0223092	-0.0195995	0
11522.9	-0.0222519	-0.01959	0
11542.9	-0.0224428	-0.0195957	0
11562.9	-0.022271	-0.0195964	0
11582.9	-0.0222138	-0.0195976	0
11602.9	-0.0223283	-0.0195951	0
11622.9	-0.0224046	-0.0195951	0
11642.9	-0.0220992	-0.0195976	0
11662.9	-0.0222901	-0.0195945	0
11682.9	-0.0222519	-0.0195913	0
11702.9	-0.0223283	-0.0195932	0
11722.9	-0.0222329	-0.0195964	0
11742.9	-0.0221565	-0.0196021	0
11762.9	-0.0223283	-0.0195957	0
11782.9	-0.022271	-0.0195983	0
11802.9	-0.0222901	-0.0195925	0
11822.9	-0.0221947	-0.0195925	0
11842.9	-0.0223474	-0.0195938	0
11862.9	-0.0222138	-0.0195976	0
11882.9	-0.0221565	-0.0195945	0
11902.9	-0.022271	-0.0195957	0
11922.9	-0.0223283	-0.0195957	0
11942.9	-0.0222901	-0.0195906	0
11962.9	-0.0221947	-0.0195913	0
11982.9	-0.0222138	-0.0195875	0
12002.9	-0.0221947	-0.0195989	0
12022.9	-0.0222901	-0.0195906	0
12042.9	-0.0222519	-0.0195964	0
12062.9	-0.0223092	-0.0195925	0
12082.9	-0.0224046	-0.0195906	0
12102.9	-0.0221565	-0.0195894	0
12122.9	-0.0222329	-0.0195925	0
12142.9	-0.0223092	-0.0195932	0
12162.9	-0.0222901	-0.0195951	0
12182.9	-0.0222138	-0.0195881	0
12202.9	-0.0223474	-0.0195989	0
12222.9	-0.0221756	-0.01959	0
12242.9	-0.0222138	-0.0195989	0
12262.9	-0.022271	-0.0195957	0
12282.9	-0.0221183	-0.0195945	0
12302.9	-0.0223665	-0.0195925	0
12322.9	-0.0222138	-0.0195919	0
12342.9	-0.022271	-0.0195887	0
12362.9	-0.0221565	-0.0195913	0
12382.9	-0.0222519	-0.0195881	0
12402.9	-0.0221756	-0.0195957	0
12422.9	-0.0221756	-0.0195932	0
12442.9	-0.0222329	-0.0195836	0
12462.9	-0.0220802	-0.0195875	0
12482.9	-0.022271	-0.0195964	0
12502.9	-0.0221565	-0.0195951	0
12522.9	-0.0222138	-0.019604	0
12542.9	-0.0221756	-0.0195938	0
12562.9	-0.0221756	-0.0195964	0
12582.9	-0.0223092	-0.0195951	0
12602.9	-0.0221756	-0.0195938	0
12622.9	-0.0221565	-0.0196002	0
12642.9	-0.0221756	-0.0195983	0
12662.9	-0.0221756	-0.0195983	0
12682.9	-0.0222138	-0.0195983	0
12702.9	-0.0221947	-0.0195945	0
12722.9	-0.0221374	-0.0195976	0
12742.9	-0.0222329	-0.0195945	0
12762.9	-0.0221183	-0.0196021	0
12782.9	-0.0221565	-0.0195887	0
12802.9	-0.0222138	-0.0196008	0
12822.9	-0.0221183	-0.01959	0
12842.9	-0.0221756	-0.0195945	0
12862.9	-0.0221565	-0.0195906	0
12882.9	-0.0220611	-0.0195957	0
12902.9	-0.0221183	-0.0195989	0
12922.9	-0.0221183	-0.0195919	0
12942.9	-0.022271	-0.0195938	0
12962.9	-0.0221756	-0.0195919	0
12982.9	-0.0220611	-0.0195945	0
13002.9	-0.0222329	-0.0195906	0
13022.9	-0.0222138	-0.0195913	0
13042.9	-0.0220992	-0.0195932	0
13062.9	-0.0220611	-0.0195964	0
13082.9	-0.0221565	-0.0195945	0
13102.9	-0.0221756	-0.01959	0
13122.9	-0.0221183	-0.0195887	0
13142.9	-0.0221756	-0.0196027	0
13162.9	-0.022271	-0.0195894	0
13182.9	-0.0221756	-0.019597	0
13202.9	-0.0221565	-0.0195957	0
13222.9	-0.0221947	-0.0195932	0
13242.9	-0.0220992	-0.0195964	0
13262.9	-0.0221374	-0.0195951	0
13282.9	-0.0221756	-0.0195983	0
13302.9	-0.0221947	-0.0195919	0
13322.9	-0.0220802	-0.0195919	0
13342.9	-0.0221947	-0.0195995	0
13362.9	-0.0222138	-0.0195957	0
13382.9	-0.0221183	-0.0195995	0
13402.9	-0.0221183	-0.019597	0
13422.9	-0.0221183	-0.0195932	0
13442.9	-0.0220802	-0.0195906	0
13462.9	-0.0220611	-0.0195951	0
13482.9	-0.0219847	-0.0195983	0
13502.9	-0.0221947	-0.0195913	0
13522.9	-0.0222329	-0.019597	0
13542.9	-0.0221183	-0.01959	0
13562.9	-0.022042	-0.0195938	0
13582.9	-0.022042	-0.0195989	0
13602.9	-0.0220802	-0.0195951	0
13622.9	-0.0221374	-0.0195932	0
13642.9	-0.0220992	-0.0195919	0
13662.9	-0.0220992	-0.0195938	0
13682.9	-0.0219656	-0.0195989	0
13702.9	-0.0221183	-0.0195919	0
13722.9	-0.0220611	-0.0195951	0
13742.9	-0.0221374	-0.0195938	0
13762.9	-0.0219847	-0.0195932	0
13782.9	-0.0220992	-0.0195951	0
13802.9	-0.0221565	-0.0195964	0
13822.9	-0.0221947	-0.0195906	0
13842.9	-0.0221183	-0.0195957	0
13862.9	-0.0222138	-0.0195913	0
13882.9	-0.0220229	-0.0195938	0
13902.9	-0.0220038	-0.0195894	0
13922.9	-0.0220802	-0.0195945	0
13942.9	-0.0221947	-0.0195887	0
13962.9	-0.0220992	-0.0195945	0
13982.9	-0.0220038	-0.0196002	0
14002.9	-0.0221374	-0.0195881	0
14022.9	-0.0220802	-0.0196014	0
14042.9	-0.0220802	-0.0195906	0
14062.9	-0.0221756	-0.0195925	0
14082.9	-0.0220992	-0.0195925	0
14102.9	-0.0220802	-0.0195964	0
14122.9	-0.0220992	-0.0195932	0
14142.9	-0.0220229	-0.0195957	0
14162.9	-0.0220229	-0.0195925	0
14182.9	-0.0221374	-0.0195983	0
14202.9	-0.0221565	-0.0195951	0
14222.9	-0.0221183	-0.0195881	0
14242.9	-0.0220229	-0.0195894	0
14262.9	-0.0221756	-0.0195887	0
14282.9	-0.0221565	-0.0195951	0
14302.9	-0.0221565	-0.0195951	0
14322.9	-0.0221756	-0.0195906	0
14342.9	-0.0219847	-0.0195957	0
14362.9	-0.022042	-0.0195957	0
14382.9	-0.0221374	-0.0195932	0
14402.9	-0.0221947	-0.0195938	0
14422.9	-0.022042	-0.0196002	0
14442.9	-0.0222138	-0.0195919	0
14462.9	-0.0221374	-0.0195957	0
14482.9	-0.0219847	-0.0195919	0
14502.9	-0.0219275	-0.0195951	0
14522.9	-0.0220229	-0.0195913	0
14542.9	-0.0219847	-0.0195989	0
14562.9	-0.0221183	-0.0195932	0
14582.9	-0.0221374	-0.0195925	0
14602.9	-0.0220802	-0.0195913	0
14622.9	-0.0220229	-0.0195976	0
14642.9	-0.0220611	-0.0195945	0
14662.9	-0.0220992	-0.0195919	0
14682.9	-0.0219465	-0.0195875	0
14702.9	-0.022042	-0.0195932	0
14722.9	-0.0221756	-0.0195964	0
14742.9	-0.0220802	-0.0195945	0
14762.9	-0.0220802	-0.0195976	0
14782.9	-0.0221183	-0.019597	0
14802.9	-0.0220611	-0.019597	0
14822.9	-0.0221183	-0.0195894	0
14842.9	-0.0220038	-0.0195932	0
14862.9	-0.0220992	-0.0195964	0
14882.9	-0.0221374	-0.0195906	0
14902.9	-0.0221565	-0.0195964	0
14922.9	-0.0220229	-0.0195919	0
14942.9	-0.0220992	-0.0195887	0
14962.9	-0.0220229	-0.0195925	0
14982.9	-0.0220611	-0.0195951	0
15002.9	-0.0219847	-0.0195919	0
15022.9	-0.022042	-0.0195887	0
15042.9	-0.0220038	-0.01959	0
15062.9	-0.0220229	-0.0195932	0
15082.9	-0.0220229	-0.0195849	0
15102.9	-0.0219656	-0.0195976	0
15122.9	-0.0221756	-0.0195951	0
15142.9	-0.0220611	-0.0195938	0
15162.9	-0.0220229	-0.0196021	0
15182.9	-0.0220038	-0.0195945	0
15202.9	-0.0220611	-0.0195925	0
15222.9	-0.0219847	-0.0195919	0
15242.9	-0.0221183	-0.0195945	0
15262.9	-0.0219847	-0.0195919	0
15282.9	-0.0219465	-0.0195957	0
15302.9	-0.0219847	-0.0195894	0
15322.9	-0.022042	-0.0195995	0
15342.9	-0.0220038	-0.0195951	0
15362.9	-0.0219465	-0.0195938	0
15382.9	-0.0220038	-0.0195945	0
15402.9	-0.0220229	-0.0195976	0
15422.9	-0.0220992	-0.0195964	0
15442.9	-0.0220038	-0.0195945	0
15462.9	-0.0220229	-0.0195945	0
15482.9	-0.0221374	-0.0195957	0
15502.9	-0.0219084	-0.0195938	0
15522.9	-0.0219275	-0.0195957	0
15542.9	-0.0220229	-0.0195945	0
15562.9	-0.0220229	-0.0195951	0
15582.9	-0.0220611	-0.019597	0
15602.9	-0.0220038	-0.0195945	0
15622.9	-0.0220802	-0.0195964	0
15642.9	-0.0220802	-0.0195894	0
15662.9	-0.0219275	-0.0195938	0
15682.9	-0.0219847	-0.0195932	0
15702.9	-0.0220802	-0.019597	0
15722.9	-0.0219847	-0.0195951	0
15742.9	-0.0219275	-0.0196008	0
15762.9	-0.0220611	-0.0195894	0
15782.9	-0.0219465	-0.0195945	0
15802.9	-0.0219656	-0.0195925	0
15822.9	-0.0220229	-0.0196002	0
15842.9	-0.0219847	-0.0195932	0
15862.9	-0.0219847	-0.0195925	0
15882.9	-0.0219847	-0.0195875	0
15902.9	-0.0219465	-0.019597	0
15922.9	-0.0219656	-0.019597	0
15942.9	-0.0220038	-0.019597	0
15962.9	-0.0220611	-0.0195951	0
15982.9	-0.0219465	-0.0195868	0
16002.9	-0.0219465	-0.0195989	0
16022.9	-0.0219847	-0.0195919	0
16042.9	-0.0219465	-0.0195913	0
16062.9	-0.0219275	-0.0195989	0
16082.9	-0.0219275	-0.0195951	0
16102.9	-0.0219465	-0.0195964	0
16122.9	-0.0220038	-0.0196014	0
16142.9	-0.0220038	-0.0195862	0
16162.9	-0.0218511	-0.0195925	0
16182.9	-0.0220229	-0.0195919	0
16202.9	-0.0219847	-0.0195945	0
16222.9	-0.0219656	-0.019597	0
16242.9	-0.0219656	-0.0195932	0
16262.9	-0.0220611	-0.0195964	0
16282.9	-0.0218702	-0.0195945	0
16302.9	-0.0220992	-0.0195951	0
16322.9	-0.0219084	-0.0195964	0
16342.9	-0.0218893	-0.0195945	0
16362.9	-0.0219275	-0.0195938	0
16382.9	-0.0219465	-0.0195855	0
16402.9	-0.0219656	-0.0195938	0
16422.9	-0.0218893	-0.0195976	0
16442.9	-0.0219465	-0.0195964	0
16462.9	-0.0218702	-0.0195964	0
16482.9	-0.0219847	-0.0195881	0
16502.9	-0.0219275	-0.01959	0
16522.9	-0.0219656	-0.0195932	0
16542.9	-0.0219656	-0.0195913	0
16562.9	-0.0218702	-0.0195913	0
16582.9	-0.0218511	-0.0195957	0
16602.9	-0.0219656	-0.019597	0
16622.9	-0.0219656	-0.0195875	0
16642.9	-0.0219084	-0.0195995	0
16662.9	-0.0218893	-0.0195875	0
16682.9	-0.0219275	-0.0195976	0
16702.9	-0.0218893	-0.0195976	0
16722.9	-0.0219847	-0.0195925	0
16742.9	-0.0219656	-0.0195945	0
16762.9	-0.0218511	-0.0195938	0
16782.9	-0.0219275	-0.019597	0
16802.9	-0.0219656	-0.0195906	0
16822.9	-0.0219656	-0.01959	0
16842.9	-0.0218511	-0.019597	0
16862.9	-0.0218893	-0.0195945	0
16882.9	-0.0218511	-0.0195945	0
16902.9	-0.0220038	-0.0195925	0
16922.9	-0.0220229	-0.0195976	0
16942.9	-0.0219465	-0.0195887	0
16962.9	-0.0219275	-0.019597	0
16982.9	-0.0219275	-0.0195945	0
17002.9	-0.0218702	-0.0195976	0
17022.9	-0.0218511	-0.0195906	0
17042.9	-0.0218702	-0.019597	0
17062.9	-0.0219084	-0.0195951	0
17082.9	-0.0218893	-0.0195938	0
17102.9	-0.0218511	-0.0195913	0
17122.9	-0.0218893	-0.0195983	0
17142.9	-0.0218129	-0.0195881	0
17162.9	-0.0218893	-0.0195945	0
17182.9	-0.0218702	-0.0195964	0
17202.9	-0.0218893	-0.0195913	0
17222.9	-0.0218893	-0.0195925	0
17242.9	-0.0217747	-0.0195951	0
17262.9	-0.021832	-0.0195964	0
17282.9	-0.0219275	-0.0195925	0
17302.9	-0.0220038	-0.0195945	0
17322.9	-0.0217747	-0.0195906	0
17342.9	-0.021832	-0.0195976	0
17362.9	-0.0218893	-0.01959	0
17382.9	-0.0218702	-0.0196002	0
17402.9	-0.0218702	-0.0195945	0
17422.9	-0.0216984	-0.0195913	0
17442.9	-0.0218511	-0.0195913	0
17462.9	-0.0218893	-0.0195951	0
17482.9	-0.0217938	-0.0195906	0
17502.9	-0.0218893	-0.0195945	0
17522.9	-0.0218129	-0.0195951	0
17542.9	-0.0218129	-0.0195945	0
17562.9	-0.0220038	-0.0195862	0
17582.9	-0.0218893	-0.0195989	0
17602.9	-0.0217747	-0.01959	0
17622.9	-0.0219275	-0.0195938	0
17642.9	-0.0219084	-0.0195906	0
17662.9	-0.0218702	-0.0195938	0
17682.9	-0.0218129	-0.0195951	0
17702.9	-0.0218129	-0.0195919	0
17722.9	-0.0217938	-0.0195951	0
17742.9	-0.0219465	-0.0195875	0
17762.9	-0.021832	-0.0195894	0
17782.9	-0.0219084	-0.0195945	0
17802.9	-0.0217366	-0.0195925	0
17822.9	-0.0219084	-0.0195881	0
17842.9	-0.0218129	-0.01959	0
17862.9	-0.0217366	-0.0195887	0
17882.9	-0.0218511	-0.0195925	0
17902.9	-0.0219275	-0.0195957	0
17922.9	-0.0217557	-0.01959	0
17942.9	-0.0218511	-0.0195945	0
17962.9	-0.0217938	-0.0195951	0
17982.9	-0.0217557	-0.0195913	0
18002.9	-0.0219084	-0.0195945	0
18022.9	-0.0218511	-0.0195945	0
18042.9	-0.0217175	-0.0196008	0
18062.9	-0.0217938	-0.0196034	0
18082.9	-0.0218511	-0.0195894	0
18102.9	-0.0216984	-0.0195983	0
18122.9	-0.0217938	-0.0195925	0
18142.9	-0.0218702	-0.0196021	0
18162.9	-0.0218893	-0.0195995	0
18182.9	-0.021832	-0.0195932	0
18202.9	-0.0216793	-0.0195932	0
18222.9	-0.0217938	-0.0195945	0
18242.9	-0.0218129	-0.0195932	0
18262.9	-0.0217175	-0.0195964	0
18282.9	-0.0217557	-0.0195932	0
18302.9	-0.0217557	-0.0195925	0
18322.9	-0.0219656	-0.0195932	0
18342.9	-0.0216793	-0.0195964	0
18362.9	-0.0217557	-0.0195976	0
18382.9	-0.0217366	-0.0195957	0
18402.9	-0.0217557	-0.0195913	0
18422.9	-0.0218511	-0.0195983	0
18442.9	-0.0217557	-0.0195964	0
18462.9	-0.0217366	-0.0195919	0
18482.9	-0.0216984	-0.0195964	0
18502.9	-0.021622	-0.0195945	0
18522.9	-0.0218129	-0.0195983	0
18542.9	-0.0217366	-0.0195906	0
18562.9	-0.0216793	-0.0195919	0
18582.9	-0.021622	-0.0195919	0
18602.9	-0.0217175	-0.0195951	0
18622.9	-0.0217557	-0.0195957	0
18642.9	-0.0217557	-0.0195989	0
18662.9	-0.0216793	-0.0195945	0
18682.9	-0.0216411	-0.0195983	0
18702.9	-0.0216602	-0.0195868	0
18722.9	-0.0216793	-0.0195887	0
18742.9	-0.0216411	-0.0195938	0
18762.9	-0.021622	-0.0195913	0
18782.9	-0.0215266	-0.0195919	0
18802.9	-0.0217366	-0.0195913	0
18822.9	-0.0216984	-0.0196002	0
18842.9	-0.0217747	-0.0195983	0
18862.9	-0.0217175	-0.0195919	0
18882.9	-0.0217747	-0.0195976	0
18902.9	-0.0216602	-0.0195976	0
18922.9	-0.0216793	-0.0195913	0
18942.9	-0.0216984	-0.019597	0
18962.9	-0.0217175	-0.0195932	0
18982.9	-0.0215457	-0.0195938	0
19002.9	-0.021603	-0.0195957	0
19022.9	-0.0216411	-0.0195964	0
19042.9	-0.0217366	-0.0195932	0
19062.9	-0.0214884	-0.0195913	0
19082.9	-0.0216793	-0.0195951	0
19102.9	-0.0216411	-0.0195913	0
19122.9	-0.0217175	-0.0196027	0
19142.9	-0.0216411	-0.0195989	0
19162.9	-0.0215266	-0.0195983	0
19182.9	-0.021622	-0.0195964	0
19202.9	-0.0217175	-0.0195964	0
19222.9	-0.0216602	-0.0195887	0
19242.9	-0.0216411	-0.0195887	0
19262.9	-0.0216602	-0.0195894	0
19282.9	-0.0216602	-0.0195995	0
19302.9	-0.0215648	-0.0195913	0
19322.9	-0.0215075	-0.0195976	0
19342.9	-0.0215839	-0.0195881	0
19362.9	-0.0215457	-0.0196014	0
19382.9	-0.0216602	-0.0195945	0
19402.9	-0.0216793	-0.0195817	0
19422.9	-0.021603	-0.0195951	0
19442.9	-0.0215839	-0.019597	0
19462.9	-0.0216411	-0.0195932	0
19482.9	-0.0216411	-0.0195919	0
19502.9	-0.0215839	-0.0195913	0
19522.9	-0.021603	-0.0195919	0
19542.9	-0.0217175	-0.0195976	0
19562.9	-0.0214884	-0.0196027	0
19582.9	-0.0215648	-0.0195964	0
19602.9	-0.0216411	-0.0195964	0
19622.9	-0.0216411	-0.0195932	0
19642.9	-0.021603	-0.0195894	0
19662.9	-0.021603	-0.0195945	0
19682.9	-0.0215266	-0.0196002	0
19702.9	-0.0216984	-0.0195925	0
19722.9	-0.0214693	-0.0195945	0
19742.9	-0.0216602	-0.0195983	0
19762.9	-0.021622	-0.0195894	0
19782.9	-0.021622	-0.0195983	0
19802.9	-0.0215648	-0.0195887	0
19822.9	-0.021622	-0.0195976	0
19842.9	-0.0215648	-0.0195925	0
19862.9	-0.0215266	-0.0195983	0
19882.9	-0.0217175	-0.0195964	0
19902.9	-0.0217175	-0.0195957	0
19922.9	-0.0215266	-0.0195945	0
19942.9	-0.0216602	-0.0196014	0
19962.9	-0.0214503	-0.0195868	0
19982.9	-0.0215839	-0.0195913	0
20002.9	-0.0216411	-0.0196034	0
20022.9	-0.0215266	-0.0196021	0
20042.9	-0.021603	-0.0195945	0
20062.9	-0.021603	-0.0195925	0
20082.9	-0.0215648	-0.0195957	0
20102.9	-0.0215266	-0.0195976	0
20122.9	-0.0215648	-0.0195887	0
20142.9	-0.0215839	-0.0195951	0
20162.9	-0.0214121	-0.0196008	0
20182.9	-0.0214503	-0.0195932	0
20202.9	-0.0215839	-0.0196027	0
20222.9	-0.0215457	-0.0195951	0
20242.9	-0.0214693	-0.0195945	0
20262.9	-0.021603	-0.0195919	0
20282.9	-0.0214503	-0.0195932	0
20302.9	-0.0215457	-0.0195995	0
20322.9	-0.021603	-0.0195951	0
20342.9	-0.0215266	-0.0195964	0
20362.9	-0.0214121	-0.0195983	0
20382.9	-0.0215648	-0.0195938	0
20402.9	-0.0214884	-0.019597	0
20422.9	-0.0214121	-0.0195938	0
20442.9	-0.0215266	-0.0195932	0
20462.9	-0.0214884	-0.019597	0
20482.9	-0.0214503	-0.0195932	0
20502.9	-0.0215266	-0.0195976	0
20522.9	-0.0214884	-0.0195925	0
20542.9	-0.021603	-0.0195945	0
20562.9	-0.0214693	-0.0195919	0
20582.9	-0.0215075	-0.0195976	0
20602.9	-0.0214884	-0.0196014	0
20622.9	-0.0215648	-0.0195945	0
20642.9	-0.0215266	-0.0196008	0
20662.9	-0.0214884	-0.0195925	0
20682.9	-0.0215457	-0.0195906	0
20702.9	-0.0215266	-0.0195995	0
20722.9	-0.0214884	-0.0195983	0
20742.9	-0.0214693	-0.0195913	0
20762.9	-0.0215266	-0.0195913	0
20782.9	-0.0215457	-0.0195951	0
20802.9	-0.0215266	-0.0195945	0
20822.9	-0.0214503	-0.0195976	0
20842.9	-0.0214693	-0.0195945	0
20862.9	-0.0214503	-0.0195957	0
20882.9	-0.0215457	-0.0195938	0
20902.9	-0.021622	-0.0195894	0
20922.9	-0.0215839	-0.0195938	0
20942.9	-0.0215457	-0.0196002	0
20962.9	-0.0214503	-0.0195932	0
20982.9	-0.0215839	-0.0195938	0
21002.9	-0.0214884	-0.0195887	0
21022.9	-0.0215266	-0.0195906	0
21042.9	-0.0215457	-0.0195932	0
21062.9	-0.0215457	-0.0195976	0
21082.9	-0.0214312	-0.0195964	0
21102.9	-0.0214503	-0.019597	0
21122.9	-0.0214693	-0.0195964	0
21142.9	-0.0214503	-0.0195925	0
21162.9	-0.0213357	-0.0195894	0
21182.9	-0.0214884	-0.0195919	0
21202.9	-0.0214312	-0.0195964	0
21222.9	-0.0215266	-0.019597	0
21242.9	-0.0214121	-0.0195938	0
21262.9	-0.0214884	-0.0195881	0
21282.9	-0.0214884	-0.0195887	0
21302.9	-0.0214884	-0.0195951	0
21322.9	-0.0215457	-0.01959	0
21342.9	-0.021393	-0.0196027	0
21362.9	-0.0214312	-0.0195906	0
21382.9	-0.0215075	-0.0195925	0
21402.9	-0.0215075	-0.0195925	0
21422.9	-0.0214503	-0.0195868	0
21442.9	-0.021393	-0.019597	0
21462.9	-0.0215266	-0.0195951	0
21482.9	-0.0214121	-0.0195938	0
21502.9	-0.0213357	-0.0195951	0
21522.9	-0.021393	-0.0195932	0
21542.9	-0.0215457	-0.0195932	0
21562.9	-0.0215839	-0.0195887	0
21582.9	-0.0214884	-0.0196008	0
21602.9	-0.0214693	-0.0195976	0
21622.9	-0.021393	-0.0195951	0
21642.9	-0.0212403	-0.0195964	0
21662.9	-0.0214312	-0.019597	0
21682.9	-0.0214312	-0.0196002	0
21702.9	-0.0215075	-0.01959	0
21722.9	-0.0215075	-0.0195957	0
21742.9	-0.0214503	-0.0195932	0
21762.9	-0.021393	-0.0195983	0
21782.9	-0.0213548	-0.0195945	0
21802.9	-0.0215839	-0.0195919	0
21822.9	-0.0214312	-0.0195913	0
21842.9	-0.0214884	-0.0195868	0
21862.9	-0.0214503	-0.0195925	0
21882.9	-0.021393	-0.0195919	0
21902.9	-0.0215075	-0.0195938	0
21922.9	-0.0213739	-0.0195995	0
21942.9	-0.0214884	-0.0195932	0
21961.4	-0.0214312	-0.0195932	0