File: EXPERIMENTAL-DATA/Cycling-data-Master-thesis/I-cell/2024-04-29_JP-measurements_sample-A5.5-01_M-cell_Cu-Li-Cellgard2400-separator_25muL-LiFSI-in-DME_outside-glovebox_sigma-0.02_added-OCV-0.1s_Deltax109.9mm_04_CP_C03.txt
time/s	Ewe/V	I/mA	error
440.069	-0.0175588	-0.973819	0
440.069	-0.0305476	-0.97991	0
440.069	-0.0349698	-0.979942	0
440.069	-0.0376801	-0.979935	0
440.07	-0.0398752	-0.979923	0
440.07	-0.0420511	-0.979954	0
440.07	-0.0438835	-0.979878	0
440.07	-0.0457731	-0.979999	0
440.07	-0.0475292	-0.979923	0
440.071	-0.0490371	-0.979891	0
440.071	-0.0506022	-0.979865	0
440.071	-0.0521864	-0.979948	0
440.071	-0.0536943	-0.979929	0
440.071	-0.055145	-0.979935	0
440.072	-0.0566719	-0.979935	0
440.072	-0.0581226	-0.979967	0
440.072	-0.0593823	-0.979954	0
440.072	-0.0606803	-0.979935	0
440.072	-0.0620736	-0.979935	0
440.073	-0.0633907	-0.979967	0
440.073	-0.0646122	-0.980005	0
440.073	-0.0658529	-0.979993	0
440.073	-0.0671127	-0.979948	0
440.073	-0.0683915	-0.979923	0
440.074	-0.0697085	-0.97991	0
440.074	-0.0708156	-0.979942	0
440.074	-0.0720181	-0.979954	0
440.074	-0.0731442	-0.979916	0
440.074	-0.0744612	-0.97991	0
440.075	-0.0755874	-0.979884	0
440.075	-0.0767326	-0.979935	0
440.075	-0.0778015	-0.979903	0
440.075	-0.079004	-0.979935	0
440.075	-0.0800538	-0.979973	0
440.076	-0.0812181	-0.979986	0
440.076	-0.0834322	-0.979967	0
440.076	-0.0854555	-0.97998	0
440.077	-0.0864671	-0.979935	0
440.077	-0.0876123	-0.979961	0
440.077	-0.0896738	-0.979935	0
440.077	-0.0907427	-0.979942	0
440.078	-0.0917543	-0.979897	0
440.078	-0.0937966	-0.979923	0
440.078	-0.0957244	-0.979973	0
440.079	-0.0974804	-0.97998	0
440.079	-0.0985112	-0.979923	0
440.079	-0.09958	-0.979929	0
440.08	-0.10126	-0.979973	0
440.08	-0.102367	-0.97998	0
440.08	-0.104046	-0.979916	0
440.08	-0.105077	-0.979891	0
440.081	-0.106757	-0.979935	0
440.081	-0.108627	-0.979954	0
440.082	-0.110364	-0.979954	0
440.082	-0.112101	-0.979967	0
440.082	-0.113819	-0.979891	0
440.083	-0.115403	-0.979935	0
440.083	-0.117255	-0.979993	0
440.084	-0.11882	-0.979961	0
440.084	-0.120385	-0.979948	0
440.084	-0.122141	-0.97991	0
440.085	-0.123611	-0.979993	0
440.085	-0.125138	-0.979903	0
440.086	-0.126741	-0.97998	0
440.086	-0.12823	-0.979942	0
440.086	-0.129719	-0.979942	0
440.087	-0.131169	-0.979993	0
440.087	-0.132735	-0.980018	0
440.088	-0.133994	-0.979961	0
440.088	-0.135559	-0.979954	0
440.088	-0.136934	-0.979923	0
440.089	-0.138308	-0.979954	0
440.089	-0.139663	-0.979948	0
440.09	-0.14119	-0.979942	0
440.09	-0.142488	-0.97991	0
440.09	-0.143786	-0.979935	0
440.091	-0.14516	-0.979929	0
440.091	-0.14642	-0.979973	0
440.092	-0.147737	-0.979935	0
440.092	-0.148921	-0.979954	0
440.092	-0.150333	-0.980012	0
440.093	-0.15144	-0.979993	0
440.093	-0.152757	-0.979903	0
440.094	-0.154055	-0.980012	0
440.094	-0.155143	-0.979973	0
440.094	-0.15646	-0.979903	0
440.095	-0.157529	-0.979954	0
440.095	-0.158808	-0.979897	0
440.096	-0.16043	-0.979884	0
440.096	-0.161652	-0.979993	0
440.097	-0.162663	-0.97998	0
440.097	-0.163904	-0.979935	0
440.097	-0.164916	-0.979999	0
440.098	-0.165927	-0.979923	0
440.098	-0.167015	-0.979903	0
440.099	-0.168237	-0.979897	0
440.099	-0.169764	-0.979948	0
440.1	-0.171195	-0.979878	0
440.1	-0.172398	-0.979999	0
440.101	-0.173715	-0.979948	0
440.101	-0.174803	-0.980005	0
440.102	-0.17633	-0.979961	0
440.102	-0.17778	-0.979942	0
440.103	-0.17925	-0.979961	0
440.104	-0.180644	-0.979973	0
440.104	-0.181999	-0.979929	0
440.105	-0.183297	-0.979935	0
440.105	-0.184346	-0.979935	0
440.106	-0.185702	-0.979954	0
440.106	-0.186866	-0.979916	0
440.107	-0.188126	-0.979916	0
440.108	-0.189538	-0.979923	0
440.108	-0.190741	-0.979993	0
440.109	-0.191981	-0.979948	0
440.109	-0.193165	-0.979929	0
440.11	-0.194425	-0.979948	0
440.111	-0.19557	-0.979935	0
440.111	-0.196715	-0.979942	0
440.112	-0.197898	-0.979954	0
440.112	-0.199082	-0.979948	0
440.113	-0.200208	-0.979954	0
440.114	-0.201258	-0.979903	0
440.114	-0.202327	-0.980012	0
440.115	-0.203376	-0.979986	0
440.115	-0.204388	-0.979884	0
440.116	-0.205972	-0.980005	0
440.117	-0.207175	-0.979948	0
440.118	-0.208664	-0.979948	0
440.119	-0.209866	-0.979923	0
440.119	-0.210916	-0.97998	0
440.12	-0.212137	-0.979916	0
440.121	-0.213359	-0.979973	0
440.122	-0.214466	-0.979929	0
440.122	-0.215764	-0.979967	0
440.123	-0.216928	-0.979923	0
440.124	-0.218112	-0.980018	0
440.125	-0.2192	-0.979967	0
440.126	-0.220269	-0.979891	0
440.126	-0.221452	-0.97991	0
440.127	-0.222521	-0.979973	0
440.128	-0.223666	-0.979942	0
440.129	-0.22485	-0.979903	0
440.13	-0.226243	-0.979999	0
440.131	-0.227388	-0.979929	0
440.132	-0.228667	-0.980012	0
440.133	-0.229793	-0.979961	0
440.134	-0.230805	-0.979967	0
440.135	-0.23216	-0.980005	0
440.136	-0.233172	-0.979993	0
440.137	-0.234279	-0.979954	0
440.138	-0.235615	-0.97998	0
440.139	-0.236722	-0.97991	0
440.14	-0.237753	-0.980024	0
440.142	-0.238802	-0.979948	0
440.143	-0.240024	-0.97991	0
440.144	-0.24115	-0.979942	0
440.145	-0.242295	-0.979935	0
440.147	-0.243326	-0.979916	0
440.148	-0.244357	-0.979973	0
440.149	-0.245445	-0.979999	0
440.15	-0.246456	-0.979942	0
440.152	-0.247602	-0.97998	0
440.153	-0.248747	-0.979993	0
440.155	-0.249758	-0.979916	0
440.156	-0.250808	-0.979961	0
440.158	-0.251915	-0.979954	0
440.16	-0.252984	-0.979897	0
440.161	-0.254015	-0.979916	0
440.163	-0.255294	-0.97998	0
440.165	-0.256343	-0.979935	0
440.167	-0.257584	-0.979897	0
440.169	-0.258615	-0.979961	0
440.172	-0.259703	-0.979967	0
440.174	-0.260829	-0.979935	0
440.177	-0.261879	-0.979935	0
440.179	-0.262909	-0.979865	0
440.182	-0.263978	-0.979948	0
440.186	-0.265066	-0.979942	0
440.19	-0.266135	-0.979954	0
440.194	-0.267223	-0.979961	0
440.202	-0.268292	-0.980005	0
440.236	-0.267242	-0.979923	0
440.244	-0.266192	-0.979967	0
440.253	-0.265181	-0.979878	0
440.26	-0.26415	-0.979967	0
440.267	-0.263139	-0.979973	0
440.273	-0.262127	-0.979929	0
440.281	-0.260924	-0.979923	0
440.288	-0.259875	-0.979954	0
440.294	-0.258863	-0.979935	0
440.302	-0.257851	-0.979967	0
440.308	-0.256725	-0.979903	0
440.315	-0.255714	-0.979948	0
440.323	-0.254702	-0.979897	0
440.329	-0.253633	-0.979897	0
440.337	-0.252526	-0.979942	0
440.345	-0.2514	-0.979833	0
440.354	-0.250388	-0.979935	0
440.361	-0.249377	-0.979929	0
440.371	-0.248231	-0.979948	0
440.381	-0.247182	-0.979923	0
440.391	-0.246151	-0.980024	0
440.403	-0.24512	-0.979935	0
440.415	-0.244109	-0.979967	0
440.43	-0.243021	-0.979884	0
440.449	-0.241952	-0.979948	0
440.469	-0.240902	-0.979935	0
440.494	-0.239871	-0.979961	0
440.527	-0.23884	-0.979929	0
440.579	-0.237791	-0.979942	0
440.687	-0.236779	-0.979973	0
441.319	-0.237829	-0.979967	0
441.769	-0.238879	-0.97998	0
442.498	-0.23989	-0.979986	0
443.868	-0.24094	-0.979993	0
445.964	-0.241952	-0.979923	0
447.841	-0.242963	-0.979929	0
449.553	-0.243975	-0.979929	0
451.157	-0.245006	-0.979923	0
452.881	-0.246036	-0.980037	0
454.615	-0.247048	-0.979967	0
456.547	-0.24806	-0.979935	0
458.925	-0.249071	-0.979942	0
461.642	-0.250102	-0.980012	0
465.082	-0.251133	-0.979935	0
470.082	-0.251858	-0.979993	0
475.082	-0.252488	-0.979986	0
480.082	-0.252526	-0.980005	0
485.082	-0.251839	-0.980031	0
490.082	-0.251171	-0.980012	0
493.032	-0.250159	-0.97998	0
497.288	-0.249148	-0.979999	0
500.942	-0.248136	-0.979961	0
503.371	-0.247124	-0.979973	0
505.955	-0.246113	-0.979961	0
509.111	-0.245101	-0.979948	0
511.904	-0.244089	-0.979929	0
514.86	-0.243078	-0.979935	0
518.465	-0.242066	-0.979986	0
521.68	-0.241036	-0.979973	0
525.041	-0.240005	-0.979999	0
528.037	-0.238974	-0.979942	0
530.953	-0.237962	-0.980075	0
534.306	-0.236932	-0.97998	0
538.124	-0.23592	-0.980012	0
542.072	-0.234909	-0.979993	0
547.072	-0.234298	-0.979986	0
552.072	-0.233878	-0.979961	0
557.072	-0.23363	-0.979986	0
562.072	-0.232962	-0.979954	0
567.072	-0.233286	-0.979929	0
572.072	-0.233057	-0.980075	0
577.072	-0.233019	-0.980005	0
580.401	-0.231969	-0.979942	0
583.716	-0.230957	-0.979916	0
585.141	-0.229927	-0.979935	0
586.467	-0.228915	-0.980012	0
591.023	-0.227884	-0.979942	0
596.023	-0.228266	-0.979999	0
599.413	-0.229278	-0.980005	0
604.413	-0.230213	-0.979999	0
607.932	-0.231225	-0.979993	0
612.932	-0.231931	-0.979948	0
613.832	-0.232962	-0.980037	0
614.582	-0.234011	-0.979948	0
615.455	-0.235023	-0.979986	0
616.402	-0.233954	-0.979942	0
618.027	-0.232923	-0.979948	0
621.485	-0.233954	-0.980005	0
624.312	-0.234966	-0.980037	0
625.287	-0.233954	-0.979986	0
626.482	-0.232943	-0.979948	0
630.51	-0.233973	-0.980005	0
631.604	-0.235004	-0.979967	0
632.237	-0.236016	-0.979961	0
633.386	-0.237046	-0.979961	0
633.998	-0.238077	-0.980031	0
634.256	-0.239089	-0.97998	0
634.502	-0.240138	-0.979986	0
634.774	-0.241188	-0.97991	0
635.647	-0.2422	-0.979935	0
636.011	-0.241188	-0.980005	0
637.031	-0.240119	-0.979948	0
639.853	-0.24115	-0.97998	0
642.183	-0.240119	-0.979999	0
642.716	-0.239089	-0.980005	0
646.87	-0.240119	-0.979923	0
649.19	-0.241207	-0.97998	0
654.19	-0.241284	-0.979993	0
654.918	-0.240234	-0.979954	0
657.063	-0.241245	-0.97998	0
657.798	-0.242257	-0.979942	0
661.079	-0.241188	-0.979961	0
661.805	-0.240157	-0.979929	0
663.091	-0.239146	-0.980005	0
665.832	-0.240177	-0.980018	0
666.719	-0.241188	-0.980031	0
667.476	-0.242238	-0.98005	0
669.46	-0.241207	-0.979961	0
670.12	-0.242353	-0.979967	0
670.574	-0.243364	-0.979999	0
670.827	-0.244376	-0.980031	0
671.242	-0.245426	-0.979993	0
672.034	-0.246437	-0.979954	0
672.899	-0.247449	-0.979897	0
673.277	-0.24846	-0.97991	0
673.518	-0.249491	-0.979935	0
673.758	-0.250541	-0.979929	0
674.163	-0.251572	-0.979973	0
674.575	-0.252602	-0.980031	0
674.9	-0.253614	-0.979967	0
675.487	-0.254664	-0.980012	0
675.956	-0.255675	-0.97998	0
676.549	-0.256706	-0.97998	0
676.823	-0.257718	-0.979967	0
677.075	-0.258729	-0.979954	0
677.467	-0.259741	-0.980012	0
677.873	-0.260772	-0.980005	0
678.112	-0.25976	-0.979999	0
678.683	-0.258729	-0.979993	0
679.795	-0.25976	-0.980005	0
679.967	-0.26081	-0.979999	0
680.157	-0.261841	-0.980024	0
680.376	-0.26289	-0.979973	0
680.76	-0.263959	-0.980005	0
681.004	-0.264971	-0.979999	0
682.385	-0.263959	-0.979967	0
682.792	-0.26289	-0.979999	0
683.362	-0.261879	-0.980043	0
683.666	-0.26289	-0.979999	0
684.639	-0.261879	-0.97998	0
684.893	-0.260867	-0.980018	0
685.101	-0.259856	-0.97998	0
685.354	-0.258825	-0.980012	0
685.92	-0.257737	-0.979993	0
686.169	-0.256725	-0.980005	0
686.638	-0.255714	-0.979948	0
687.591	-0.254702	-0.979999	0
687.845	-0.253633	-0.980012	0
688.303	-0.252621	-0.980037	0
688.723	-0.251514	-0.979999	0
688.954	-0.250503	-0.979929	0
689.284	-0.249472	-0.98005	0
689.664	-0.248422	-0.979993	0
689.974	-0.247392	-0.979954	0
690.552	-0.246361	-0.979942	0
690.855	-0.245311	-0.980005	0
691.134	-0.24428	-0.980012	0
691.526	-0.243231	-0.979942	0
692.897	-0.24428	-0.980012	0
693.378	-0.245292	-0.979999	0
693.648	-0.246342	-0.980024	0
693.913	-0.247392	-0.979993	0
694.226	-0.248403	-0.979993	0
694.766	-0.249415	-0.979986	0
694.945	-0.250465	-0.979986	0
695.229	-0.251495	-0.979993	0
695.462	-0.252526	-0.979935	0
695.768	-0.253538	-0.979993	0
696.108	-0.254568	-0.980031	0
696.537	-0.255599	-0.979999	0
697.076	-0.256611	-0.979954	0
697.51	-0.25558	-0.979993	0
698.059	-0.254549	-0.979967	0
698.313	-0.253538	-0.979986	0
698.653	-0.252526	-0.979942	0
698.909	-0.251495	-0.979986	0
699.058	-0.250484	-0.97991	0
699.629	-0.249453	-0.979973	0
700.629	-0.248422	-0.97991	0
701.652	-0.247411	-0.97998	0
702.226	-0.248422	-0.979973	0
703.067	-0.247411	-0.980012	0
704.734	-0.24638	-0.979999	0
706.005	-0.245368	-0.979935	0
706.719	-0.244338	-0.980018	0
707.756	-0.245387	-0.980012	0
709.979	-0.244376	-0.980031	0
710.56	-0.245406	-0.980012	0
711.989	-0.246418	-0.979948	0
712.616	-0.245406	-0.980005	0
714.876	-0.244395	-0.979986	0
715.258	-0.243383	-0.979973	0
715.622	-0.242372	-0.980024	0
716.113	-0.241322	-0.980012	0
716.806	-0.24031	-0.980043	0
717.402	-0.239279	-0.980018	0
718.432	-0.238172	-0.97998	0
721.3	-0.237123	-0.979948	0
721.626	-0.236111	-0.980031	0
722.228	-0.237142	-0.979954	0
722.791	-0.238172	-0.979967	0
723.305	-0.239184	-0.979993	0
723.573	-0.240253	-0.979942	0
724.011	-0.241322	-0.97998	0
724.302	-0.242353	-0.979967	0
724.604	-0.243402	-0.979935	0
726.306	-0.244414	-0.979916	0
726.623	-0.245445	-0.980031	0
726.847	-0.246475	-0.979973	0
727.065	-0.247506	-0.979973	0
727.34	-0.248556	-0.979999	0
727.727	-0.249568	-0.980037	0
728.149	-0.250636	-0.979986	0
731.033	-0.249625	-0.980018	0
733.275	-0.248613	-0.979993	0
733.806	-0.247544	-0.980043	0
734.906	-0.248594	-0.980037	0
736.613	-0.247582	-0.979961	0
739.789	-0.248594	-0.979993	0
740.342	-0.249644	-0.979986	0
740.91	-0.250732	-0.979986	0
741.515	-0.251743	-0.979948	0
741.834	-0.252755	-0.979973	0
742.68	-0.253767	-0.980024	0
743.177	-0.254778	-0.97998	0
743.539	-0.255809	-0.979916	0
743.753	-0.256859	-0.979935	0
744.455	-0.25787	-0.980031	0
744.629	-0.25892	-0.980018	0
744.847	-0.259932	-0.979993	0
745.087	-0.260943	-0.979961	0
745.255	-0.261993	-0.97998	0
745.386	-0.263005	-0.980043	0
745.551	-0.264055	-0.98005	0
745.74	-0.265066	-0.979999	0
746.534	-0.266078	-0.980043	0
746.664	-0.26499	-0.979999	0
746.987	-0.263921	-0.979967	0
747.075	-0.26289	-0.979986	0
747.22	-0.26186	-0.98005	0
747.33	-0.260848	-0.979999	0
747.594	-0.259836	-0.979954	0
748.081	-0.258806	-0.979999	0
748.351	-0.257756	-0.97998	0
748.986	-0.256687	-0.979999	0
749.84	-0.257699	-0.979961	0
750.324	-0.25871	-0.979935	0
750.633	-0.259722	-0.979967	0
750.777	-0.260734	-0.980018	0
750.976	-0.261745	-0.980012	0
751.171	-0.262776	-0.979916	0
751.324	-0.263845	-0.980018	0
751.562	-0.264971	-0.979999	0
751.977	-0.265983	-0.980018	0
753.383	-0.264952	-0.979986	0
753.5	-0.26394	-0.979973	0
753.643	-0.26289	-0.980031	0
753.743	-0.261745	-0.980024	0
753.96	-0.260734	-0.979999	0
754.094	-0.259722	-0.979961	0
754.425	-0.258691	-0.979973	0
755.364	-0.25766	-0.980031	0
755.814	-0.256592	-0.980012	0
756.175	-0.255561	-0.98005	0
756.672	-0.254511	-0.979954	0
756.955	-0.253499	-0.980024	0
757.19	-0.252488	-0.980005	0
757.366	-0.251419	-0.979986	0
757.817	-0.250407	-0.979986	0
758.018	-0.249396	-0.980012	0
759.181	-0.250407	-0.980012	0
759.399	-0.251514	-0.97998	0
759.724	-0.252526	-0.980005	0
760.128	-0.253557	-0.979948	0
760.408	-0.254568	-0.980031	0
760.916	-0.25558	-0.980018	0
761.117	-0.256649	-0.980024	0
761.318	-0.25768	-0.980012	0
761.768	-0.25871	-0.979999	0
762.662	-0.257584	-0.979961	0
762.766	-0.256534	-0.979967	0
763.374	-0.257565	-0.979961	0
763.583	-0.258596	-0.980012	0
763.735	-0.259607	-0.980024	0
763.948	-0.258596	-0.979916	0
764.9	-0.257584	-0.979967	0
765.64	-0.258596	-0.98005	0
765.902	-0.259665	-0.97998	0
766.044	-0.260734	-0.980005	0
766.211	-0.261764	-0.979993	0
766.982	-0.260753	-0.980018	0
767.18	-0.259741	-0.979942	0
767.876	-0.260753	-0.979967	0
768.218	-0.261764	-0.980018	0
768.332	-0.260753	-0.979993	0
768.793	-0.261764	-0.980043	0
768.932	-0.262776	-0.979954	0
769.17	-0.263787	-0.979993	0
769.266	-0.264837	-0.980018	0
769.566	-0.265887	-0.97998	0
769.737	-0.266899	-0.98005	0
769.858	-0.267949	-0.980005	0
769.957	-0.268998	-0.980005	0
770.102	-0.270048	-0.979903	0
770.28	-0.271098	-0.980024	0
770.37	-0.272148	-0.979942	0
770.556	-0.273159	-0.980037	0
770.621	-0.274209	-0.979999	0
770.765	-0.27524	-0.979999	0
770.822	-0.27629	-0.980075	0
771.02	-0.277397	-0.97998	0
771.158	-0.278408	-0.979986	0
771.302	-0.27942	-0.980024	0
771.389	-0.280451	-0.979999	0
771.5	-0.28152	-0.980005	0
771.561	-0.282588	-0.979967	0
771.638	-0.2836	-0.980005	0
771.741	-0.284612	-0.980024	0
771.883	-0.285623	-0.979948	0
771.992	-0.286673	-0.979954	0
772.072	-0.287685	-0.979954	0
772.118	-0.288754	-0.97998	0
772.191	-0.289765	-0.979986	0
772.285	-0.290815	-0.979973	0
772.397	-0.291884	-0.97998	0
772.447	-0.292972	-0.979935	0
772.503	-0.29196	-0.979954	0
772.626	-0.29301	-0.980024	0
772.773	-0.291979	-0.979923	0
772.832	-0.293048	-0.980024	0
772.944	-0.291941	-0.980037	0
773.144	-0.29301	-0.979999	0
773.183	-0.291998	-0.979999	0
773.307	-0.293029	-0.979993	0
773.368	-0.292018	-0.980037	0
773.396	-0.293048	-0.979993	0
773.577	-0.294117	-0.979986	0
773.657	-0.293086	-0.979993	0
773.737	-0.294098	-0.980018	0
773.876	-0.295167	-0.979973	0
773.889	-0.294117	-0.980005	0
774.481	-0.295167	-0.980012	0
774.603	-0.294022	-0.980031	0
774.639	-0.295033	-0.979935	0
774.719	-0.296121	-0.979986	0
774.847	-0.297133	-0.980005	0
774.956	-0.298183	-0.980005	0
775.129	-0.299213	-0.979986	0
775.285	-0.300225	-0.979993	0
775.414	-0.301237	-0.979967	0
775.458	-0.302248	-0.979897	0
775.485	-0.303298	-0.980031	0
775.569	-0.304424	-0.979935	0
775.754	-0.305455	-0.980005	0
776.153	-0.306486	-0.980018	0
776.284	-0.305474	-0.980005	0
776.309	-0.306581	-0.98005	0
776.347	-0.305569	-0.979999	0
776.379	-0.306619	-0.980005	0
776.834	-0.307669	-0.979993	0
776.898	-0.306619	-0.980018	0
776.93	-0.307707	-0.980012	0
776.936	-0.306467	-0.979961	0
776.973	-0.307478	-0.97998	0
777.07	-0.308509	-0.979961	0
777.084	-0.309578	-0.98005	0
777.164	-0.308547	-0.980012	0
777.26	-0.30744	-0.980018	0
777.27	-0.306314	-0.98005	0
777.294	-0.305245	-0.97998	0
777.301	-0.304214	-0.979993	0
777.338	-0.303164	-0.979999	0
777.375	-0.302134	-0.980005	0
777.461	-0.303145	-0.979967	0
777.468	-0.302096	-0.979973	0
777.506	-0.300988	-0.979967	0
777.553	-0.302076	-0.979935	0
777.592	-0.301065	-0.979967	0
777.743	-0.300053	-0.980012	0
777.767	-0.301065	-0.980043	0
777.847	-0.30221	-0.979916	0
777.85	-0.301198	-0.979967	0
777.86	-0.30221	-0.980024	0
777.966	-0.303279	-0.97998	0
777.991	-0.304424	-0.979986	0
777.997	-0.303394	-0.980018	0
778.05	-0.302344	-0.979967	0
778.099	-0.303451	-0.980043	0
778.206	-0.302439	-0.979973	0
778.24	-0.301275	-0.979948	0
778.28	-0.30242	-0.980062	0
778.345	-0.303432	-0.979967	0
778.369	-0.302382	-0.980024	0
778.407	-0.301294	-0.980024	0
778.491	-0.302458	-0.979954	0
778.523	-0.301294	-0.979967	0
778.558	-0.302306	-0.979929	0
778.569	-0.301198	-0.980012	0
778.587	-0.302248	-0.979967	0
778.619	-0.30116	-0.979999	0
778.635	-0.302172	-0.979986	0
778.647	-0.301065	-0.979935	0
778.665	-0.302076	-0.979973	0
778.673	-0.301027	-0.980031	0
778.684	-0.302153	-0.980012	0
778.718	-0.300988	-0.980012	0
778.727	-0.302038	-0.980005	0
778.855	-0.301027	-0.979929	0
778.887	-0.302038	-0.979993	0
778.926	-0.300817	-0.979923	0
778.944	-0.301924	-0.980062	0
779.027	-0.302974	-0.979935	0
779.079	-0.304062	-0.980043	0
779.123	-0.302954	-0.980024	0
779.13	-0.303985	-0.980012	0
779.185	-0.302916	-0.98005	0
779.289	-0.304004	-0.980088	0
779.314	-0.302993	-0.979986	0
779.348	-0.304119	-0.979993	0
779.363	-0.302993	-0.979942	0
779.38	-0.301847	-0.979954	0
779.386	-0.300702	-0.980005	0
779.405	-0.301733	-0.979986	0
779.437	-0.300588	-0.980005	0
779.523	-0.299347	-0.980024	0
779.565	-0.300359	-0.979973	0
779.576	-0.299309	-0.979942	0
779.618	-0.298278	-0.979973	0
779.649	-0.297267	-0.980075	0
779.67	-0.296236	-0.980012	0
779.756	-0.297247	-0.979973	0
779.798	-0.298316	-0.980005	0
779.867	-0.297228	-0.979948	0
779.927	-0.296102	-0.980005	0
779.982	-0.294938	-0.980005	0
780.124	-0.293831	-0.979993	0
780.249	-0.292628	-0.979948	0
780.284	-0.291579	-0.979993	0
780.336	-0.290567	-0.979935	0
780.342	-0.289536	-0.980005	0
780.432	-0.288429	-0.979903	0
780.476	-0.287398	-0.979973	0
780.566	-0.286387	-0.979961	0
780.609	-0.28528	-0.979999	0
780.708	-0.284173	-0.979973	0
780.793	-0.283085	-0.979923	0
780.923	-0.281959	-0.980018	0
781.086	-0.280947	-0.979993	0
781.319	-0.282054	-0.979999	0
781.883	-0.283085	-0.979897	0
781.947	-0.284096	-0.980024	0
782.14	-0.283085	-0.980012	0
782.25	-0.284134	-0.979961	0
782.333	-0.283066	-0.979993	0
782.392	-0.28423	-0.979999	0
782.453	-0.283218	-0.980005	0
782.454	-0.284268	-0.979999	0
782.622	-0.283142	-0.979954	0
782.829	-0.28213	-0.979923	0
783.023	-0.281081	-0.979967	0
783.22	-0.280069	-0.979973	0
783.391	-0.279057	-0.980005	0
783.562	-0.278007	-0.97991	0
784.766	-0.279019	-0.979973	0
786.273	-0.277988	-0.979967	0
786.355	-0.276977	-0.980018	0
787.341	-0.277988	-0.980012	0
787.49	-0.279019	-0.980037	0
787.701	-0.280031	-0.980037	0
787.961	-0.281061	-0.980018	0
788.098	-0.282073	-0.980024	0
788.647	-0.283104	-0.979986	0
788.95	-0.284154	-0.980012	0
789.16	-0.285184	-0.980024	0
789.502	-0.286215	-0.980043	0
789.766	-0.287284	-0.979999	0
790.147	-0.288296	-0.980005	0
790.868	-0.287188	-0.979999	0
791.446	-0.288219	-0.980069	0
791.578	-0.287188	-0.980024	0
791.613	-0.286139	-0.979999	0
791.713	-0.287169	-0.979973	0
791.823	-0.288181	-0.979999	0
791.916	-0.287169	-0.979967	0
792.08	-0.286158	-0.979967	0
792.289	-0.28507	-0.980018	0
792.416	-0.2861	-0.97998	0
792.556	-0.285089	-0.979999	0
792.586	-0.286139	-0.980037	0
793.036	-0.28507	-0.979973	0
793.386	-0.284039	-0.980005	0
793.707	-0.285051	-0.980005	0
794.141	-0.2861	-0.980005	0
794.415	-0.287112	-0.980018	0
794.684	-0.288143	-0.979986	0
794.937	-0.289154	-0.980037	0
795.404	-0.2903	-0.979973	0
795.59	-0.291311	-0.980005	0
795.764	-0.292361	-0.979923	0
795.991	-0.293411	-0.980018	0
796.22	-0.294461	-0.98005	0
796.31	-0.295472	-0.980056	0
796.407	-0.296484	-0.979993	0
796.485	-0.297572	-0.979999	0
796.738	-0.298641	-0.980024	0
796.843	-0.297629	-0.980031	0
796.892	-0.298641	-0.979986	0
797.029	-0.297629	-0.980069	0
797.036	-0.29866	-0.979948	0
797.061	-0.297648	-0.98005	0
797.103	-0.296522	-0.97998	0
797.267	-0.29761	-0.979961	0
797.333	-0.296598	-0.980018	0
797.557	-0.297648	-0.979986	0
797.842	-0.29866	-0.979948	0
797.942	-0.299767	-0.979961	0
798.071	-0.300836	-0.979973	0
798.132	-0.299824	-0.980037	0
798.179	-0.300855	-0.979973	0
798.348	-0.301886	-0.980062	0
798.455	-0.302954	-0.980005	0
798.519	-0.304157	-0.979948	0
798.587	-0.305207	-0.980024	0
798.601	-0.304004	-0.980018	0
798.641	-0.305016	-0.979999	0
798.845	-0.306066	-0.979961	0
799.046	-0.307077	-0.979986	0
799.112	-0.308108	-0.980005	0
799.153	-0.309196	-0.979961	0
799.251	-0.310208	-0.98005	0
799.407	-0.309196	-0.980024	0
799.503	-0.310208	-0.979961	0
799.681	-0.311219	-0.979999	0
799.75	-0.31225	-0.979993	0
799.866	-0.313395	-0.980037	0
799.917	-0.314407	-0.97998	0
800.069	-0.314922	-0.979948	0