File: EXPERIMENTAL-DATA/Cycling-data-Master-thesis/I-cell/2024-04-25_JP_sample-A4-02-extra_M-cell_Cu-Li-Cellgard2400-separator_25muL-LiFSI-in-DME_outside-glovebox_sigma-0.02_low-OCV_Deltax110.2mm_04_CP_C11.txt
time/s	Ewe/V	I/mA	error
266.616	-0.0520262	-1.94489	0
266.616	-0.120688	-1.95942	0
266.617	-0.139375	-1.95948	0
266.617	-0.150579	-1.95955	0
266.617	-0.159646	-1.95955	0
266.618	-0.167491	-1.95953	0
266.618	-0.174515	-1.95956	0
266.619	-0.181291	-1.9596	0
266.619	-0.18719	-1.95952	0
266.619	-0.192782	-1.95954	0
266.62	-0.198165	-1.95956	0
266.62	-0.203242	-1.95958	0
266.621	-0.207938	-1.95954	0
266.621	-0.212576	-1.95962	0
266.621	-0.216947	-1.95951	0
266.622	-0.221128	-1.9596	0
266.622	-0.225155	-1.95959	0
266.623	-0.229049	-1.95956	0
266.623	-0.232809	-1.95958	0
266.623	-0.236436	-1.95957	0
266.624	-0.239891	-1.95958	0
266.624	-0.243269	-1.95953	0
266.625	-0.246495	-1.95958	0
266.625	-0.249626	-1.95965	0
266.625	-0.252699	-1.95962	0
266.626	-0.255925	-1.95962	0
266.626	-0.258635	-1.95963	0
266.627	-0.261517	-1.95962	0
266.627	-0.264228	-1.9596	0
266.627	-0.266957	-1.95958	0
266.628	-0.269515	-1.9596	0
266.628	-0.272016	-1.95957	0
266.629	-0.274707	-1.95959	0
266.629	-0.277093	-1.9596	0
266.629	-0.279364	-1.95967	0
266.63	-0.28177	-1.95955	0
266.63	-0.284156	-1.9596	0
266.631	-0.286274	-1.95957	0
266.631	-0.288412	-1.95957	0
266.631	-0.29055	-1.95965	0
266.632	-0.292611	-1.95958	0
266.633	-0.29662	-1.95955	0
266.633	-0.299617	-1.95953	0
266.634	-0.303301	-1.95958	0
266.635	-0.306946	-1.95956	0
266.636	-0.310229	-1.95958	0
266.636	-0.313551	-1.95959	0
266.637	-0.316757	-1.95953	0
266.638	-0.319811	-1.9596	0
266.639	-0.322579	-1.9596	0
266.64	-0.325309	-1.95958	0
266.64	-0.327943	-1.95959	0
266.641	-0.330424	-1.9596	0
266.642	-0.332658	-1.95962	0
266.643	-0.334891	-1.95962	0
266.644	-0.337983	-1.95961	0
266.645	-0.340465	-1.95959	0
266.646	-0.34266	-1.9596	0
266.647	-0.344797	-1.95961	0
266.649	-0.347145	-1.95963	0
266.65	-0.349378	-1.95956	0
266.652	-0.351784	-1.95959	0
266.655	-0.353979	-1.95964	0
266.657	-0.356155	-1.95955	0
266.661	-0.35835	-1.9596	0
266.665	-0.360526	-1.95964	0
266.675	-0.362568	-1.9596	0
266.7	-0.360507	-1.9596	0
266.714	-0.358464	-1.95962	0
266.734	-0.356422	-1.9596	0
266.807	-0.358464	-1.95965	0
266.832	-0.360678	-1.95955	0
266.857	-0.362835	-1.9596	0
266.879	-0.364935	-1.95956	0
266.901	-0.367016	-1.95962	0
266.923	-0.369134	-1.95958	0
266.947	-0.371253	-1.9596	0
266.97	-0.373467	-1.95962	0
266.994	-0.375567	-1.95962	0
267.018	-0.377628	-1.95961	0
267.043	-0.379747	-1.95961	0
267.069	-0.381828	-1.9596	0
267.095	-0.383851	-1.95965	0
267.122	-0.385913	-1.95967	0
267.152	-0.387955	-1.95958	0
267.181	-0.390074	-1.95966	0
267.214	-0.392211	-1.95958	0
267.248	-0.394292	-1.95956	0
267.284	-0.396315	-1.95967	0
267.319	-0.398358	-1.95961	0
267.358	-0.400419	-1.95962	0
267.398	-0.402519	-1.9596	0
267.44	-0.404657	-1.95963	0
267.484	-0.406718	-1.95962	0
267.535	-0.408856	-1.95962	0
267.586	-0.410918	-1.95955	0
267.639	-0.413017	-1.95965	0
267.697	-0.415117	-1.95961	0
267.755	-0.417159	-1.9596	0
267.817	-0.419183	-1.95965	0
267.885	-0.421359	-1.95966	0
267.959	-0.423401	-1.95963	0
268.038	-0.425558	-1.95963	0
268.125	-0.427581	-1.95969	0
268.215	-0.4297	-1.95962	0
268.31	-0.431723	-1.95963	0
268.419	-0.433804	-1.95963	0
268.535	-0.435903	-1.9596	0
268.666	-0.437946	-1.95962	0
268.812	-0.440103	-1.95964	0
268.979	-0.442183	-1.95964	0
269.161	-0.444302	-1.95962	0
269.39	-0.446344	-1.95963	0
269.644	-0.448444	-1.95969	0
269.939	-0.450506	-1.95962	0
270.328	-0.452567	-1.95964	0
270.826	-0.45459	-1.9596	0
271.46	-0.456671	-1.95959	0
272.238	-0.458732	-1.95963	0
273.075	-0.460775	-1.95964	0
273.925	-0.462836	-1.95959	0
274.775	-0.464917	-1.95961	0
275.594	-0.466997	-1.95969	0
276.363	-0.46904	-1.95964	0
277.128	-0.47112	-1.95962	0
277.889	-0.473144	-1.95961	0
278.677	-0.475224	-1.95963	0
279.511	-0.477267	-1.95963	0
280.362	-0.479328	-1.9597	0
281.319	-0.481351	-1.95967	0
282.32	-0.483375	-1.95961	0
283.521	-0.485398	-1.95963	0
285.093	-0.48744	-1.95965	0
287.426	-0.489483	-1.95962	0
293.978	-0.488681	-1.95967	0
296.017	-0.486658	-1.95963	0
297.586	-0.484635	-1.95962	0
298.956	-0.482535	-1.95962	0
300.138	-0.480512	-1.95965	0
301.222	-0.47845	-1.95972	0
302.228	-0.476427	-1.9597	0
303.211	-0.474365	-1.95962	0
304.103	-0.472342	-1.95965	0
304.945	-0.4703	-1.95969	0
305.775	-0.468238	-1.9596	0
306.623	-0.466177	-1.95965	0
307.424	-0.464134	-1.95962	0
308.189	-0.462092	-1.95969	0
308.974	-0.46005	-1.95969	0
309.737	-0.458007	-1.95965	0
310.507	-0.455946	-1.9596	0
311.288	-0.453884	-1.95961	0
312.017	-0.451823	-1.95963	0
312.765	-0.449742	-1.95958	0
313.505	-0.4477	-1.95965	0
314.25	-0.445676	-1.95965	0
314.968	-0.443653	-1.95965	0
315.696	-0.441611	-1.95967	0
316.495	-0.43953	-1.95963	0
317.206	-0.437507	-1.95965	0
317.961	-0.435426	-1.95965	0
318.721	-0.433384	-1.95965	0
319.491	-0.431341	-1.95963	0
320.238	-0.42928	-1.95969	0
320.99	-0.427238	-1.95964	0
321.812	-0.425176	-1.95965	0
322.583	-0.423115	-1.9597	0
323.372	-0.421072	-1.9596	0
324.187	-0.419011	-1.95966	0
324.996	-0.416949	-1.95967	0
325.814	-0.414926	-1.95965	0
326.63	-0.412864	-1.95962	0
327.48	-0.410803	-1.95963	0
328.325	-0.40878	-1.95966	0
329.186	-0.406756	-1.95959	0
330.037	-0.404733	-1.95964	0
330.907	-0.402691	-1.95965	0
331.822	-0.40061	-1.95967	0
332.769	-0.398587	-1.9596	0
333.677	-0.396564	-1.95965	0
334.619	-0.394502	-1.95965	0
335.567	-0.39246	-1.95966	0
336.558	-0.390379	-1.95962	0
337.529	-0.388318	-1.95966	0
338.511	-0.386294	-1.95965	0
339.495	-0.384233	-1.95962	0
340.507	-0.382171	-1.95959	0
341.532	-0.380091	-1.95962	0
342.579	-0.378029	-1.95964	0
343.623	-0.375987	-1.95963	0
344.641	-0.373925	-1.95962	0
345.676	-0.371845	-1.9596	0
346.684	-0.369783	-1.95958	0
347.719	-0.36776	-1.95962	0
348.702	-0.365718	-1.95967	0
349.697	-0.363694	-1.95964	0
350.16	-0.358884	-1.95966	0
350.206	-0.358999	-1.9596	0
350.21	-0.361156	-1.95969	0
350.253	-0.3598	-1.95966	0
350.283	-0.359667	-1.95967	0
350.338	-0.359438	-1.95962	0
350.358	-0.356384	-1.95964	0
350.385	-0.356441	-1.95965	0
350.386	-0.358827	-1.95966	0
350.388	-0.355353	-1.95962	0
350.415	-0.355391	-1.95963	0
350.424	-0.354093	-1.95961	0
350.436	-0.351974	-1.95966	0
350.469	-0.35415	-1.95964	0
350.49	-0.354131	-1.95967	0
350.517	-0.354036	-1.95963	0
350.543	-0.356116	-1.95963	0
350.626	-0.358216	-1.95972	0
350.679	-0.355639	-1.95962	0
350.828	-0.355506	-1.95966	0
350.859	-0.355811	-1.95957	0
350.87	-0.355811	-1.95962	0
350.947	-0.355754	-1.95971	0
351.021	-0.3527	-1.95965	0
351.085	-0.354742	-1.95962	0
351.093	-0.352394	-1.95966	0
351.124	-0.350199	-1.95966	0
351.166	-0.352318	-1.95964	0
351.187	-0.35228	-1.95958	0
351.237	-0.352184	-1.9596	0
351.271	-0.352127	-1.9596	0
351.316	-0.35417	-1.95962	0
351.331	-0.352089	-1.95964	0
351.37	-0.351764	-1.95967	0
351.45	-0.353921	-1.9596	0
351.46	-0.35039	-1.9596	0
351.514	-0.348176	-1.95965	0
351.568	-0.350218	-1.95965	0
351.588	-0.347527	-1.95967	0
351.638	-0.349646	-1.95959	0
351.653	-0.351822	-1.95963	0
351.665	-0.350466	-1.95965	0
351.668	-0.348348	-1.9596	0
351.698	-0.348271	-1.95968	0
351.711	-0.347241	-1.95964	0
351.743	-0.347298	-1.95961	0
351.754	-0.342717	-1.95967	0
351.774	-0.342736	-1.95962	0
351.801	-0.344817	-1.95962	0
351.809	-0.344912	-1.95969	0
351.815	-0.347031	-1.95962	0
351.852	-0.349321	-1.95967	0
351.854	-0.346095	-1.95963	0
351.865	-0.34369	-1.95963	0
351.873	-0.345962	-1.95967	0
351.88	-0.348214	-1.95965	0
351.894	-0.350237	-1.95969	0
351.897	-0.346993	-1.95965	0
351.914	-0.346973	-1.95962	0
351.925	-0.34411	-1.95965	0
351.942	-0.342011	-1.95975	0
351.947	-0.339128	-1.95963	0
351.952	-0.339529	-1.95961	0
351.968	-0.338995	-1.95964	0
351.976	-0.341094	-1.9596	0
351.986	-0.34327	-1.9596	0
351.998	-0.345427	-1.95955	0
352.055	-0.347565	-1.95965	0
352.056	-0.344664	-1.95965	0
352.063	-0.34056	-1.95961	0
352.079	-0.337945	-1.95969	0
352.089	-0.335616	-1.95963	0
352.1	-0.337735	-1.9596	0
352.124	-0.339777	-1.95965	0
352.138	-0.336303	-1.9597	0
352.147	-0.336361	-1.95957	0
352.159	-0.336303	-1.9597	0
352.205	-0.338346	-1.95965	0
352.219	-0.340541	-1.95962	0
352.222	-0.334834	-1.95965	0
352.24	-0.332314	-1.95964	0
352.254	-0.332161	-1.95961	0
352.26	-0.334643	-1.95964	0
352.27	-0.333345	-1.95961	0
352.299	-0.335406	-1.95964	0
352.307	-0.337525	-1.95967	0
352.317	-0.339586	-1.95966	0
352.321	-0.33596	-1.95964	0
352.33	-0.330749	-1.95968	0
352.341	-0.327657	-1.95973	0
352.344	-0.32445	-1.95958	0
352.347	-0.319926	-1.95963	0
352.351	-0.316948	-1.95969	0
352.362	-0.312577	-1.95973	0
352.366	-0.310516	-1.9596	0
352.37	-0.312749	-1.95963	0
352.371	-0.314849	-1.95962	0
352.375	-0.314734	-1.95964	0
352.377	-0.312043	-1.95962	0
352.397	-0.314276	-1.95962	0
352.402	-0.316395	-1.95965	0
352.406	-0.318514	-1.95963	0
352.41	-0.320613	-1.95972	0
352.412	-0.316796	-1.95965	0
352.416	-0.317025	-1.95962	0
352.422	-0.319163	-1.9596	0
352.426	-0.317903	-1.95962	0
352.427	-0.315059	-1.95961	0
352.457	-0.314811	-1.95967	0
352.468	-0.314658	-1.95967	0
352.47	-0.311795	-1.9597	0
352.472	-0.309714	-1.95963	0
352.487	-0.311947	-1.95964	0
352.494	-0.309084	-1.95963	0
352.51	-0.309103	-1.95963	0
352.516	-0.311298	-1.95962	0
352.519	-0.311317	-1.95969	0
352.525	-0.313551	-1.95963	0
352.529	-0.310344	-1.95967	0
352.538	-0.309752	-1.95967	0
352.549	-0.311928	-1.95965	0
352.553	-0.314009	-1.95965	0
352.562	-0.313665	-1.95965	0
352.566	-0.315975	-1.95962	0
352.574	-0.317998	-1.95965	0
352.584	-0.317693	-1.95969	0
352.599	-0.317196	-1.95966	0
352.611	-0.319449	-1.95957	0
352.617	-0.314963	-1.95966	0
352.62	-0.311451	-1.95965	0
352.641	-0.311489	-1.95965	0
352.646	-0.306297	-1.95965	0
352.647	-0.304045	-1.95965	0
352.659	-0.302842	-1.95963	0
352.667	-0.3029	-1.95962	0
352.676	-0.301926	-1.95967	0
352.685	-0.301735	-1.95973	0
352.697	-0.301735	-1.95962	0
352.705	-0.299693	-1.95966	0
352.715	-0.301907	-1.95964	0
352.717	-0.301735	-1.95964	0
352.722	-0.303816	-1.95966	0
352.733	-0.303587	-1.95963	0
352.752	-0.303644	-1.95963	0
352.756	-0.303091	-1.95966	0
352.76	-0.299559	-1.9596	0
352.778	-0.301659	-1.9596	0
352.782	-0.303759	-1.95962	0
352.788	-0.305877	-1.95965	0
352.79	-0.303549	-1.95968	0
352.812	-0.305572	-1.95966	0
352.817	-0.307633	-1.95966	0
352.821	-0.309905	-1.95958	0
352.823	-0.3121	-1.95961	0
352.827	-0.314352	-1.95966	0
352.832	-0.309351	-1.9597	0
352.834	-0.307233	-1.95966	0
352.835	-0.304541	-1.95963	0
352.846	-0.300953	-1.95965	0
352.855	-0.300972	-1.95958	0
352.869	-0.303243	-1.95965	0
352.875	-0.305267	-1.95964	0
352.882	-0.307538	-1.95957	0
352.893	-0.307347	-1.95961	0
352.9	-0.305248	-1.95961	0
352.91	-0.304999	-1.95965	0
352.912	-0.302403	-1.95965	0
352.918	-0.302403	-1.9596	0
352.923	-0.299655	-1.95965	0
352.936	-0.297383	-1.95963	0
352.96	-0.299445	-1.95958	0
352.974	-0.301774	-1.95972	0
352.983	-0.30122	-1.95962	0
352.99	-0.30332	-1.95967	0
352.996	-0.302804	-1.9596	0
353.002	-0.298815	-1.95968	0
353.004	-0.299483	-1.95965	0
353.011	-0.301812	-1.95967	0
353.016	-0.297612	-1.95964	0
353.022	-0.295265	-1.95961	0
353.044	-0.294959	-1.95958	0
353.051	-0.297097	-1.95965	0
353.055	-0.299216	-1.95963	0
353.064	-0.301449	-1.9596	0
353.065	-0.29872	-1.95965	0
353.07	-0.29662	-1.95962	0
353.094	-0.296353	-1.95959	0
353.105	-0.293871	-1.95963	0
353.12	-0.293108	-1.95964	0
353.133	-0.292306	-1.95967	0
353.145	-0.291981	-1.95957	0
353.158	-0.294272	-1.95962	0
353.166	-0.296448	-1.95965	0
353.173	-0.29849	-1.95961	0
353.18	-0.300628	-1.95967	0
353.184	-0.30269	-1.95964	0
353.193	-0.30477	-1.95965	0
353.2	-0.306889	-1.95972	0
353.215	-0.304503	-1.95962	0
353.216	-0.301869	-1.9596	0
353.23	-0.299674	-1.95965	0
353.249	-0.299617	-1.95961	0
353.252	-0.297192	-1.95972	0
353.255	-0.296868	-1.95958	0
353.262	-0.294138	-1.9596	0
353.266	-0.291581	-1.95961	0
353.277	-0.293795	-1.95967	0
353.284	-0.291466	-1.95968	0
353.292	-0.291409	-1.95965	0
353.296	-0.293795	-1.95964	0
353.298	-0.291084	-1.95957	0
353.302	-0.288488	-1.9597	0
353.303	-0.285224	-1.95968	0
353.305	-0.281808	-1.95964	0
353.331	-0.279441	-1.95964	0
353.342	-0.281979	-1.95959	0
353.344	-0.282151	-1.95965	0
353.354	-0.282228	-1.9596	0
353.359	-0.282228	-1.95965	0
353.37	-0.285053	-1.95968	0
353.378	-0.284728	-1.95966	0
353.384	-0.284995	-1.95967	0
353.389	-0.285034	-1.95964	0
353.42	-0.284995	-1.95963	0
353.431	-0.287133	-1.95964	0
353.445	-0.28719	-1.95967	0
353.448	-0.285014	-1.95961	0
353.467	-0.284957	-1.95966	0
353.47	-0.287152	-1.95963	0
353.481	-0.286522	-1.95963	0
353.496	-0.283946	-1.95964	0
353.505	-0.286007	-1.95967	0
353.507	-0.283545	-1.95965	0
353.524	-0.283087	-1.95958	0
353.527	-0.279784	-1.95968	0
353.534	-0.279441	-1.95965	0
353.544	-0.279174	-1.95965	0
353.552	-0.281407	-1.95962	0
353.561	-0.280949	-1.95965	0
353.569	-0.280987	-1.95962	0
353.58	-0.283106	-1.95969	0
353.587	-0.285186	-1.95965	0
353.593	-0.287381	-1.95965	0
353.601	-0.287038	-1.95959	0
353.61	-0.285091	-1.95965	0
353.62	-0.282838	-1.95963	0
353.638	-0.280777	-1.95963	0
353.644	-0.280892	-1.95966	0
353.649	-0.281197	-1.9597	0
353.653	-0.281197	-1.95969	0
353.657	-0.281521	-1.95963	0
353.659	-0.278735	-1.95962	0
353.667	-0.278696	-1.9596	0
353.673	-0.280758	-1.95962	0
353.68	-0.280605	-1.95972	0
353.695	-0.280071	-1.95965	0
353.71	-0.276711	-1.95967	0
353.721	-0.276711	-1.95967	0
353.724	-0.278964	-1.95956	0
353.73	-0.281082	-1.95958	0
353.736	-0.281101	-1.9596	0
353.737	-0.27883	-1.9597	0
353.739	-0.275528	-1.95962	0
353.745	-0.271538	-1.95965	0
353.772	-0.274211	-1.95965	0
353.774	-0.274249	-1.95963	0
353.782	-0.270832	-1.95965	0
353.789	-0.273027	-1.95971	0
353.804	-0.27068	-1.95966	0
353.808	-0.27066	-1.95966	0
353.816	-0.26837	-1.95962	0
353.819	-0.26564	-1.95962	0
353.832	-0.267893	-1.95963	0
353.836	-0.270202	-1.95959	0
353.838	-0.270355	-1.95963	0
353.852	-0.272436	-1.95963	0
353.859	-0.274478	-1.95969	0
353.865	-0.2715	-1.95969	0
353.875	-0.270966	-1.95962	0
353.884	-0.271004	-1.95965	0
353.887	-0.268733	-1.95966	0
353.893	-0.265831	-1.95969	0
353.907	-0.268313	-1.95958	0
353.915	-0.266156	-1.9596	0
353.924	-0.263197	-1.95968	0
353.938	-0.26543	-1.95961	0
353.948	-0.26524	-1.95962	0
353.95	-0.262453	-1.95961	0
353.958	-0.262224	-1.95967	0
353.971	-0.262338	-1.95966	0
353.995	-0.264514	-1.95963	0
354	-0.266614	-1.95965	0
354.004	-0.266595	-1.95964	0
354.023	-0.265469	-1.95964	0
354.027	-0.263369	-1.95964	0
354.036	-0.265488	-1.95965	0
354.037	-0.263083	-1.95967	0
354.06	-0.259819	-1.95961	0
354.075	-0.25957	-1.95964	0
354.082	-0.259647	-1.9597	0
354.087	-0.256306	-1.95963	0
354.093	-0.256192	-1.95958	0
354.106	-0.258521	-1.95962	0
354.108	-0.257356	-1.95968	0
354.122	-0.257165	-1.95962	0
354.124	-0.256917	-1.95965	0
354.14	-0.254703	-1.95966	0
354.144	-0.252012	-1.95968	0
354.157	-0.254417	-1.95968	0
354.17	-0.257108	-1.95964	0
354.172	-0.25749	-1.95964	0
354.178	-0.259838	-1.95965	0
354.184	-0.262147	-1.9596	0
354.195	-0.264228	-1.95958	0
354.208	-0.266518	-1.95962	0
354.214	-0.266175	-1.95965	0
354.227	-0.261155	-1.95975	0
354.233	-0.258788	-1.95964	0
354.238	-0.256516	-1.95965	0
354.242	-0.256555	-1.95965	0
354.251	-0.256574	-1.95967	0
354.264	-0.258673	-1.95962	0
354.276	-0.260735	-1.9596	0
354.279	-0.260181	-1.95964	0
354.29	-0.25917	-1.95969	0
354.301	-0.258024	-1.95966	0
354.306	-0.255218	-1.95961	0
354.313	-0.25268	-1.95965	0
354.328	-0.254741	-1.95959	0
354.342	-0.256879	-1.95965	0
354.355	-0.258979	-1.95959	0
354.37	-0.256383	-1.95969	0
354.383	-0.25352	-1.95962	0
354.39	-0.250523	-1.95962	0
354.406	-0.249549	-1.95961	0
354.42	-0.24953	-1.95961	0
354.427	-0.249568	-1.95958	0
354.436	-0.251649	-1.95962	0
354.445	-0.251363	-1.95959	0
354.467	-0.250866	-1.95964	0
354.475	-0.248748	-1.95967	0
354.491	-0.247259	-1.95966	0
354.497	-0.247278	-1.9597	0
354.503	-0.247297	-1.95965	0
354.511	-0.247144	-1.95965	0
354.517	-0.249416	-1.95962	0
354.518	-0.247125	-1.95965	0
354.524	-0.244548	-1.95962	0
354.53	-0.240979	-1.95967	0
354.546	-0.240941	-1.95963	0
354.56	-0.243079	-1.9596	0
354.57	-0.245159	-1.95965	0
354.584	-0.247278	-1.95963	0
354.593	-0.249473	-1.95962	0
354.599	-0.251592	-1.95967	0
354.604	-0.251153	-1.9596	0
354.613	-0.247774	-1.95965	0
354.62	-0.245045	-1.95958	0
354.639	-0.242773	-1.95965	0
354.65	-0.239337	-1.95973	0
354.653	-0.236761	-1.95963	0
354.668	-0.23657	-1.9596	0
354.677	-0.238669	-1.9597	0
354.683	-0.236226	-1.95962	0
354.686	-0.233955	-1.95962	0
354.702	-0.231168	-1.95956	0
354.721	-0.23113	-1.95969	0
354.729	-0.233573	-1.95967	0
354.739	-0.233745	-1.95963	0
354.744	-0.231664	-1.95962	0
354.759	-0.231588	-1.95967	0
354.772	-0.231416	-1.95963	0
354.785	-0.228438	-1.95966	0
354.794	-0.226167	-1.95963	0
354.802	-0.223781	-1.95965	0
354.818	-0.220956	-1.95972	0
354.819	-0.218589	-1.95964	0
354.834	-0.220612	-1.95962	0
354.843	-0.222769	-1.95961	0
354.849	-0.224983	-1.95963	0
354.855	-0.227236	-1.95964	0
354.858	-0.229946	-1.9596	0
354.871	-0.228782	-1.95966	0
354.872	-0.226644	-1.95967	0
354.89	-0.22651	-1.9596	0
354.894	-0.225651	-1.95963	0
354.896	-0.225556	-1.95965	0
354.899	-0.22233	-1.95966	0
354.901	-0.220154	-1.95965	0
354.924	-0.21689	-1.95965	0
354.932	-0.216852	-1.95965	0
354.948	-0.213817	-1.95965	0
354.948	-0.211507	-1.95966	0
354.961	-0.209408	-1.95967	0
354.983	-0.20622	-1.95963	0
354.997	-0.206277	-1.95956	0
355.01	-0.208358	-1.95963	0
355.022	-0.205934	-1.95963	0
355.027	-0.2033	-1.95966	0
355.041	-0.206144	-1.95965	0
355.057	-0.203605	-1.9596	0
355.069	-0.205743	-1.95965	0
355.078	-0.207804	-1.95967	0
355.087	-0.207957	-1.95963	0
355.095	-0.205647	-1.95969	0
355.112	-0.205457	-1.95968	0
355.119	-0.205476	-1.95965	0
355.131	-0.207709	-1.95963	0
355.139	-0.207766	-1.95967	0
355.157	-0.209847	-1.95963	0
355.166	-0.211889	-1.95963	0
355.173	-0.20977	-1.95967	0
355.181	-0.206182	-1.9596	0
355.184	-0.203777	-1.95969	0
355.202	-0.20141	-1.95961	0
355.218	-0.199177	-1.95964	0
355.238	-0.201257	-1.95965	0
355.245	-0.199005	-1.95972	0
355.262	-0.196962	-1.95966	0
355.263	-0.19387	-1.95963	0
355.276	-0.191809	-1.95959	0
355.289	-0.189327	-1.95965	0
355.312	-0.189346	-1.95969	0
355.328	-0.191427	-1.95961	0
355.339	-0.193584	-1.95968	0
355.347	-0.191427	-1.95965	0
355.357	-0.193985	-1.95965	0
355.362	-0.191904	-1.95962	0
355.395	-0.189728	-1.95968	0
355.415	-0.187667	-1.95962	0
355.426	-0.184975	-1.95967	0
355.443	-0.182895	-1.9597	0
355.46	-0.1807	-1.95967	0
355.482	-0.178161	-1.95962	0
355.509	-0.1761	-1.95965	0
355.524	-0.17587	-1.95966	0
355.544	-0.178066	-1.95957	0
355.563	-0.180089	-1.95963	0
355.58	-0.182169	-1.95963	0
355.65	-0.181921	-1.95959	0
355.66	-0.179669	-1.95967	0
355.68	-0.181959	-1.95965	0
355.699	-0.179364	-1.95969	0
355.759	-0.179268	-1.95965	0
355.768	-0.17923	-1.9596	0
355.799	-0.181482	-1.95964	0
355.801	-0.179192	-1.95962	0
355.852	-0.179211	-1.9596	0
355.886	-0.1765	-1.95963	0
355.903	-0.173981	-1.95966	0
355.917	-0.171767	-1.95962	0
355.979	-0.171748	-1.95962	0
355.999	-0.173828	-1.95965	0
356.011	-0.17608	-1.95963	0
356.031	-0.17587	-1.95961	0
356.093	-0.177913	-1.95967	0
356.108	-0.180013	-1.95959	0
356.131	-0.179955	-1.95963	0
356.168	-0.17755	-1.95971	0
356.176	-0.175126	-1.95963	0
356.235	-0.175393	-1.95963	0
356.242	-0.173198	-1.95964	0
356.246	-0.17085	-1.95967	0
356.271	-0.168674	-1.95962	0
356.327	-0.168713	-1.95961	0
356.403	-0.166537	-1.95963	0
356.446	-0.166498	-1.95965	0
356.552	-0.166517	-1.95959	0
356.66	-0.165754	-1.95963	0
356.682	-0.163425	-1.95962	0
356.729	-0.161039	-1.95962	0
356.762	-0.161039	-1.95965	0
356.777	-0.158901	-1.95966	0
356.808	-0.160982	-1.95969	0
356.838	-0.16312	-1.95962	0
356.904	-0.161039	-1.95963	0
356.938	-0.160982	-1.95959	0
356.981	-0.163311	-1.95963	0
357.005	-0.163273	-1.95971	0
357.051	-0.161135	-1.95966	0
357.078	-0.159092	-1.95966	0
357.127	-0.158997	-1.9596	0
357.162	-0.156897	-1.95964	0
357.222	-0.156745	-1.95959	0
357.344	-0.154645	-1.95965	0
357.417	-0.156706	-1.9596	0
357.495	-0.154588	-1.95963	0
357.535	-0.150885	-1.95966	0
357.55	-0.148842	-1.95963	0
357.663	-0.1468	-1.95968	0
357.762	-0.14888	-1.95964	0
357.864	-0.148785	-1.9596	0
357.883	-0.146647	-1.95959	0
357.917	-0.144528	-1.95964	0
358	-0.144547	-1.95963	0
358.033	-0.144509	-1.95967	0
358.112	-0.142467	-1.95962	0
358.234	-0.140367	-1.95967	0
358.243	-0.138248	-1.95967	0
358.338	-0.136206	-1.95963	0
358.419	-0.133858	-1.95963	0
358.601	-0.130384	-1.95963	0
358.759	-0.130346	-1.95967	0
358.886	-0.130308	-1.95967	0
358.921	-0.128189	-1.95965	0
359.122	-0.126128	-1.95965	0
359.617	-0.123952	-1.9596	0
359.776	-0.121871	-1.95963	0
359.974	-0.12189	-1.95965	0
360.568	-0.12168	-1.95963	0
361.104	-0.119619	-1.95959	0
361.603	-0.119523	-1.95963	0
361.963	-0.119733	-1.95962	0
362.075	-0.119714	-1.95963	0
362.705	-0.121738	-1.95958	0
363.419	-0.121738	-1.95963	0
363.917	-0.121757	-1.95961	0
364.343	-0.123799	-1.95965	0
364.772	-0.125841	-1.95967	0
365.015	-0.123799	-1.95963	0
365.625	-0.12586	-1.95961	0
366.334	-0.123704	-1.9596	0
366.642	-0.125803	-1.95969	0
366.982	-0.127865	-1.95965	0
367.595	-0.127846	-1.95969	0
368.25	-0.127922	-1.95962	0
368.45	-0.128017	-1.9596	0
368.688	-0.128017	-1.95963	0
369.083	-0.125918	-1.95962	0
369.472	-0.127998	-1.95956	0
369.831	-0.128036	-1.95963	0
370.297	-0.128017	-1.95969	0
370.95	-0.127559	-1.95967	0
371.415	-0.127636	-1.95968	0
371.722	-0.127559	-1.95969	0
372.117	-0.129583	-1.95967	0
372.422	-0.129468	-1.95965	0
372.685	-0.13151	-1.9596	0
373.041	-0.12901	-1.95965	0
373.523	-0.131091	-1.95963	0
373.826	-0.133209	-1.95965	0
374.043	-0.135271	-1.95969	0
374.345	-0.137351	-1.9596	0
374.934	-0.137351	-1.95967	0
375.076	-0.135271	-1.95966	0
375.664	-0.137351	-1.95962	0
376.534	-0.139375	-1.95968	0
376.794	-0.139298	-1.95962	0
376.915	-0.139184	-1.95963	0
377.554	-0.141283	-1.95958	0
377.816	-0.143307	-1.95969	0
377.901	-0.143307	-1.95968	0
378.108	-0.143173	-1.95969	0
378.607	-0.145235	-1.95964	0
379.519	-0.147296	-1.95963	0
379.722	-0.147277	-1.95962	0
380.421	-0.145101	-1.95969	0
380.561	-0.145082	-1.95963	0
380.783	-0.147143	-1.95967	0
381.135	-0.149167	-1.95959	0
381.675	-0.1493	-1.95961	0
381.934	-0.1493	-1.95964	0
382.384	-0.149319	-1.95963	0
382.865	-0.1514	-1.9596	0
383.082	-0.153461	-1.95965	0
383.261	-0.153461	-1.95962	0
383.572	-0.155618	-1.95962	0
383.744	-0.157756	-1.9596	0
383.816	-0.155733	-1.95967	0
384.055	-0.157833	-1.9596	0
384.384	-0.159856	-1.95963	0
384.666	-0.161879	-1.95965	0
384.935	-0.161841	-1.95964	0
385.352	-0.161784	-1.95963	0
385.532	-0.163902	-1.95962	0
385.817	-0.165926	-1.95959	0
385.969	-0.165945	-1.95966	0
386.35	-0.168083	-1.95965	0
386.461	-0.17024	-1.95965	0
386.759	-0.172339	-1.95964	0
386.924	-0.174401	-1.95966	0
387.1	-0.174038	-1.95968	0
387.138	-0.171938	-1.95965	0
387.32	-0.171423	-1.95967	0
387.527	-0.17148	-1.95965	0
387.793	-0.171461	-1.95962	0
387.906	-0.173561	-1.9596	0
388.199	-0.175775	-1.95965	0
388.632	-0.177875	-1.95965	0
388.833	-0.177894	-1.95963	0
389.291	-0.175851	-1.95965	0
389.64	-0.178008	-1.95961	0
389.742	-0.18007	-1.95962	0
389.992	-0.176825	-1.95964	0
390.035	-0.174706	-1.95968	0
390.215	-0.174725	-1.95962	0
390.322	-0.177168	-1.95968	0
390.332	-0.17505	-1.95965	0
390.726	-0.174935	-1.95963	0
391.041	-0.172893	-1.95966	0
391.203	-0.170831	-1.95966	0
391.421	-0.170755	-1.9597	0
391.533	-0.168713	-1.9596	0
391.856	-0.166441	-1.95962	0
391.857	-0.164265	-1.95958	0
391.966	-0.164284	-1.95962	0
392.101	-0.166422	-1.95965	0
392.277	-0.168484	-1.95961	0
392.382	-0.170526	-1.95965	0
392.441	-0.16814	-1.95967	0
392.564	-0.16604	-1.95964	0
392.673	-0.166155	-1.95962	0
393.08	-0.168197	-1.95961	0
393.243	-0.165907	-1.95962	0
393.326	-0.163483	-1.9596	0
393.647	-0.163444	-1.95965	0
393.676	-0.165697	-1.95964	0
394.035	-0.165525	-1.9596	0
394.319	-0.163196	-1.95963	0
394.393	-0.165219	-1.95964	0
394.497	-0.165277	-1.95963	0
394.604	-0.165296	-1.95965	0
394.777	-0.163273	-1.95963	0
395.137	-0.165296	-1.95969	0
395.641	-0.164933	-1.95965	0
395.668	-0.162872	-1.95965	0
395.728	-0.160791	-1.95963	0
395.894	-0.160887	-1.95966	0
396.022	-0.160906	-1.95962	0
396.06	-0.162967	-1.95965	0
396.503	-0.162795	-1.95967	0
396.577	-0.160677	-1.95967	0
396.668	-0.160715	-1.95961	0
396.927	-0.162757	-1.95956	0
397.134	-0.1627	-1.9596	0
397.355	-0.162681	-1.95966	0
397.377	-0.160409	-1.95965	0
397.382	-0.157947	-1.95964	0
397.488	-0.155866	-1.9596	0
397.819	-0.153729	-1.95967	0
397.85	-0.1514	-1.95959	0
398.046	-0.149262	-1.95965	0
398.2	-0.147201	-1.95964	0
398.664	-0.145158	-1.95966	0
398.684	-0.142161	-1.95964	0
398.872	-0.139909	-1.95963	0
399.07	-0.137256	-1.95965	0
399.545	-0.137275	-1.95965	0
399.761	-0.139336	-1.95963	0
399.939	-0.141455	-1.95962	0
400.118	-0.143479	-1.95967	0
400.544	-0.143517	-1.95965	0
400.787	-0.143536	-1.95968	0
401.002	-0.142486	-1.95967	0
401.122	-0.140348	-1.95964	0
401.492	-0.142429	-1.95963	0
401.782	-0.144452	-1.95964	0
402.183	-0.14241	-1.95964	0
402.363	-0.140348	-1.95958	0
402.824	-0.140386	-1.95967	0
402.883	-0.138268	-1.95965	0
403.226	-0.136225	-1.95967	0
403.682	-0.134087	-1.95965	0
404.879	-0.134049	-1.95963	0
405.202	-0.136206	-1.95965	0
405.512	-0.138306	-1.95965	0
405.622	-0.138363	-1.95965	0
405.792	-0.135805	-1.95965	0
406.075	-0.135748	-1.9596	0
406.219	-0.135882	-1.9596	0
406.349	-0.135691	-1.95963	0
406.538	-0.135633	-1.95965	0
406.8	-0.137848	-1.95966	0
407.008	-0.137695	-1.95962	0
407.258	-0.139966	-1.95968	0
407.649	-0.14239	-1.95965	0
407.846	-0.144528	-1.95963	0
408.255	-0.146609	-1.95963	0
408.421	-0.14867	-1.95965	0
408.487	-0.146513	-1.95969	0
408.566	-0.146456	-1.95965	0
408.706	-0.14428	-1.95966	0
408.857	-0.146323	-1.95961	0
409.177	-0.146399	-1.95965	0
409.492	-0.14638	-1.9596	0
410.029	-0.14386	-1.95963	0
410.26	-0.139203	-1.95971	0
410.267	-0.136473	-1.95965	0
410.427	-0.134278	-1.95966	0
410.616	-0.134259	-1.95966	0
410.814	-0.136321	-1.95961	0
410.895	-0.136187	-1.95963	0
411.199	-0.138268	-1.95964	0
411.546	-0.140329	-1.95969	0
411.736	-0.140348	-1.95962	0
411.936	-0.142429	-1.95965	0
412.137	-0.142295	-1.95962	0
412.271	-0.144433	-1.9596	0
412.398	-0.144395	-1.95966	0
412.584	-0.146418	-1.95965	0
412.595	-0.146303	-1.95962	0
412.604	-0.146323	-1.95958	0
412.614	-0.146323	-1.95963	0
412.716	-0.146227	-1.95966	0
412.73	-0.146208	-1.95964	0
412.74	-0.146189	-1.95958	0
412.863	-0.146227	-1.95965	0
412.892	-0.146189	-1.95968	0
412.955	-0.14575	-1.95967	0
412.974	-0.145693	-1.95962	0
412.99	-0.145654	-1.95963	0
413.004	-0.145635	-1.95964	0
413.017	-0.145635	-1.95958	0
413.028	-0.145674	-1.95963	0
413.041	-0.145654	-1.95963	0
413.082	-0.145674	-1.95962	0
413.18	-0.145616	-1.95965	0
413.369	-0.147659	-1.9596	0
413.46	-0.147659	-1.95966	0
413.487	-0.147697	-1.95965	0
413.628	-0.147525	-1.95965	0
413.643	-0.145254	-1.95969	0
413.895	-0.143173	-1.95964	0
414.163	-0.140825	-1.95962	0
414.478	-0.140692	-1.95967	0
414.538	-0.138611	-1.95963	0
414.681	-0.136511	-1.95962	0
415.287	-0.138611	-1.95967	0
415.333	-0.135805	-1.95969	0
415.357	-0.133763	-1.95963	0
415.915	-0.135977	-1.95959	0
416.22	-0.138058	-1.95962	0
416.285	-0.135939	-1.95963	0
416.578	-0.136263	-1.95963	0
416.697	-0.13634	-1.95965	0
416.866	-0.134297	-1.95962	0
417.254	-0.136359	-1.95963	0
417.568	-0.138382	-1.95957	0
417.685	-0.140577	-1.95962	0
418.132	-0.141016	-1.95967	0
418.26	-0.141016	-1.95969	0
418.665	-0.143135	-1.95966	0
418.813	-0.143116	-1.95965	0
418.817	-0.140844	-1.95965	0
419.423	-0.142887	-1.95965	0
420.09	-0.14491	-1.95968	0
420.328	-0.144643	-1.95967	0
420.661	-0.146781	-1.95963	0
421.105	-0.146781	-1.95961	0
421.392	-0.14888	-1.95965	0
421.674	-0.150904	-1.95966	0
422.179	-0.152927	-1.95963	0
422.458	-0.153003	-1.95967	0
423.473	-0.15308	-1.95957	0
423.732	-0.152259	-1.95969	0
424.07	-0.152278	-1.95962	0
424.467	-0.152297	-1.95968	0
424.967	-0.154397	-1.95959	0
425.271	-0.15224	-1.95969	0
426.916	-0.151705	-1.95972	0
426.987	-0.149567	-1.95967	0
427.198	-0.151667	-1.95966	0
427.219	-0.153729	-1.95968	0
427.377	-0.155771	-1.95962	0
427.855	-0.157852	-1.95963	0
428.055	-0.15997	-1.95968	0
428.277	-0.162089	-1.95963	0
428.371	-0.162127	-1.95965	0
428.635	-0.162108	-1.9597	0
428.763	-0.162032	-1.9597	0
428.931	-0.161936	-1.95961	0
429.1	-0.161898	-1.95963	0
429.23	-0.16396	-1.95965	0
429.439	-0.165983	-1.95965	0
429.741	-0.165868	-1.95969	0
429.999	-0.165868	-1.95965	0
430.109	-0.163788	-1.95963	0
430.193	-0.163788	-1.95959	0
430.429	-0.16583	-1.95967	0
431.13	-0.16375	-1.95964	0
431.173	-0.165792	-1.95969	0
431.537	-0.168312	-1.9596	0
431.687	-0.168293	-1.95963	0
431.874	-0.170392	-1.95966	0
432.209	-0.170411	-1.95971	0
432.597	-0.172454	-1.95965	0
433.478	-0.172435	-1.9596	0
433.666	-0.174477	-1.95965	0
433.914	-0.1765	-1.95963	0
433.991	-0.176462	-1.9597	0
434.315	-0.178619	-1.95958	0
434.689	-0.180681	-1.95965	0
434.844	-0.180604	-1.95969	0
435.139	-0.18049	-1.95963	0
435.22	-0.180604	-1.95965	0
435.439	-0.182647	-1.95964	0
435.564	-0.180337	-1.95959	0
436.317	-0.182456	-1.95963	0
436.564	-0.182551	-1.95963	0
436.653	-0.178905	-1.95967	0
436.964	-0.178829	-1.95965	0
437.07	-0.18091	-1.95963	0
437.398	-0.182952	-1.95965	0
437.57	-0.185052	-1.95963	0
437.707	-0.187132	-1.9596	0
437.818	-0.186502	-1.95966	0
437.854	-0.184479	-1.95963	0
437.994	-0.186674	-1.95964	0
438.111	-0.181673	-1.95964	0
438.122	-0.179593	-1.95956	0
438.338	-0.17755	-1.95959	0
438.59	-0.177035	-1.95969	0
439.101	-0.175012	-1.95966	0
439.19	-0.172855	-1.9596	0
439.609	-0.174954	-1.95963	0
440.079	-0.174916	-1.95963	0
440.427	-0.176978	-1.95962	0
440.584	-0.176195	-1.95967	0
440.826	-0.176176	-1.9596	0
441.692	-0.173561	-1.95963	0
442.079	-0.173542	-1.95966	0
442.423	-0.173904	-1.95963	0
442.509	-0.171156	-1.95965	0
442.552	-0.171442	-1.95963	0
442.6	-0.17148	-1.95963	0
442.648	-0.171213	-1.95966	0
442.67	-0.171442	-1.95959	0
442.715	-0.171366	-1.95963	0
442.757	-0.171557	-1.95965	0
442.8	-0.1719	-1.95964	0
442.839	-0.1719	-1.95959	0
442.858	-0.171041	-1.95968	0
442.891	-0.173294	-1.95961	0
442.908	-0.173294	-1.95968	0
442.922	-0.175451	-1.95964	0
442.925	-0.17316	-1.95964	0
442.938	-0.175622	-1.95959	0
442.963	-0.175699	-1.95967	0
443.055	-0.175241	-1.95965	0
443.078	-0.176214	-1.95963	0
443.201	-0.178333	-1.9597	0
443.27	-0.17547	-1.95967	0
443.39	-0.179001	-1.95964	0
443.584	-0.181081	-1.9597	0
443.729	-0.183124	-1.95967	0
443.951	-0.1832	-1.95959	0
443.965	-0.180948	-1.95967	0
444.175	-0.183353	-1.95962	0
444.197	-0.185892	-1.95966	0
444.358	-0.187915	-1.95963	0
444.421	-0.185185	-1.95961	0
444.47	-0.183067	-1.95968	0
444.877	-0.185128	-1.95969	0
444.999	-0.185204	-1.95962	0
445.117	-0.187342	-1.95968	0
445.227	-0.189442	-1.95966	0
445.326	-0.187304	-1.95967	0
445.56	-0.187228	-1.95962	0
445.655	-0.189327	-1.95962	0
446.093	-0.189346	-1.95958	0
446.386	-0.188965	-1.95964	0
446.573	-0.191064	-1.95966	0
446.616	-0.191503	-1.95967	0