File: EXPERIMENTAL-DATA/Cycling-data-Master-thesis/I-cell/2024-04-24_JP-measurements_sample-A5-01_M-cell_Cu-Li-Cellgard2400-separator_25muL-LiFSI-in-DME_outside-glovebox_sigma-0.02_added-OCV-0.1s_Deltax110.3mm_04_CP_C10.txt
time/s	Ewe/V	I/mA	error
2031.95	0.00137443	-0.194664	0
2031.95	-0.00231243	-0.19595	0
2031.95	-0.00389215	-0.195961	0
2031.95	-0.00492266	-0.195956	0
2031.95	-0.006144	-0.195953	0
2031.96	-0.00715543	-0.195955	0
2031.96	-0.00854853	-0.195954	0
2031.96	-0.0096172	-0.195959	0
2031.96	-0.0107813	-0.195954	0
2031.96	-0.0119072	-0.195957	0
2031.96	-0.0129759	-0.195954	0
2031.96	-0.0140064	-0.195954	0
2031.96	-0.015056	-0.195952	0
2031.96	-0.0161819	-0.195958	0
2031.96	-0.0173269	-0.195955	0
2031.97	-0.0185292	-0.19596	0
2031.97	-0.0195788	-0.195954	0
2031.97	-0.0207047	-0.195956	0
2031.97	-0.0219833	-0.195947	0
2031.97	-0.0229948	-0.195959	0
2031.97	-0.0241398	-0.195957	0
2031.97	-0.025342	-0.195958	0
2031.97	-0.0263916	-0.195959	0
2031.98	-0.0274794	-0.195956	0
2031.98	-0.0285099	-0.195955	0
2031.98	-0.0297121	-0.195954	0
2031.98	-0.0307236	-0.195952	0
2031.98	-0.0319258	-0.195954	0
2031.98	-0.0330327	-0.19596	0
2031.98	-0.0341204	-0.195961	0
2031.99	-0.0353036	-0.195956	0
2031.99	-0.0363723	-0.195956	0
2031.99	-0.0374601	-0.195958	0
2031.99	-0.0385478	-0.195956	0
2031.99	-0.0396356	-0.195959	0
2031.99	-0.0406661	-0.195959	0
2031.99	-0.0418111	-0.195954	0
2032	-0.0428225	-0.195959	0
2032	-0.0438912	-0.195956	0
2032	-0.0449408	-0.195956	0
2032	-0.0460095	-0.195959	0
2032	-0.0471927	-0.195955	0
2032	-0.0483377	-0.195956	0
2032.01	-0.0493682	-0.195955	0
2032.01	-0.0505514	-0.195956	0
2032.01	-0.0516582	-0.195961	0
2032.01	-0.052765	-0.195957	0
2032.01	-0.0538337	-0.195958	0
2032.01	-0.0548833	-0.195952	0
2032.02	-0.0559138	-0.195959	0
2032.02	-0.0569825	-0.195956	0
2032.02	-0.0580512	-0.195951	0
2032.02	-0.0591008	-0.195955	0
2032.02	-0.0601313	-0.195954	0
2032.03	-0.0612	-0.195956	0
2032.03	-0.0622877	-0.195958	0
2032.03	-0.0635472	-0.195956	0
2032.03	-0.0646731	-0.195948	0
2032.03	-0.0657609	-0.195958	0
2032.04	-0.0668105	-0.195958	0
2032.04	-0.0679364	-0.195951	0
2032.04	-0.0690242	-0.195958	0
2032.04	-0.0700738	-0.195957	0
2032.04	-0.0714096	-0.195958	0
2032.05	-0.0726691	-0.195961	0
2032.05	-0.0739287	-0.195958	0
2032.05	-0.0750928	-0.195954	0
2032.05	-0.0761423	-0.195955	0
2032.06	-0.0772492	-0.195954	0
2032.06	-0.0784133	-0.195958	0
2032.06	-0.079482	-0.195956	0
2032.06	-0.0805506	-0.195957	0
2032.07	-0.0816766	-0.195961	0
2032.07	-0.0828025	-0.195957	0
2032.07	-0.0838521	-0.19596	0
2032.07	-0.0849017	-0.195958	0
2032.07	-0.0859513	-0.195949	0
2032.08	-0.0870009	-0.195958	0
2032.08	-0.0880505	-0.195949	0
2032.08	-0.089081	-0.195951	0
2032.08	-0.0901878	-0.195952	0
2032.09	-0.0911992	-0.195954	0
2032.09	-0.0922488	-0.195951	0
2032.09	-0.0933557	-0.19596	0
2032.09	-0.0943671	-0.195959	0
2032.1	-0.0954167	-0.195958	0
2032.1	-0.0964281	-0.195957	0
2032.1	-0.0974777	-0.195959	0
2032.1	-0.0985273	-0.195958	0
2032.11	-0.0995387	-0.195958	0
2032.11	-0.100607	-0.195961	0
2032.11	-0.101695	-0.195953	0
2032.12	-0.102707	-0.195951	0
2032.12	-0.103737	-0.195954	0
2032.12	-0.104806	-0.195961	0
2032.12	-0.105932	-0.195958	0
2032.13	-0.107019	-0.195958	0
2032.13	-0.10805	-0.19596	0
2032.13	-0.109176	-0.195954	0
2032.14	-0.110187	-0.19596	0
2032.14	-0.111313	-0.195954	0
2032.14	-0.112382	-0.195959	0
2032.14	-0.113432	-0.195954	0
2032.15	-0.114481	-0.195959	0
2032.15	-0.115531	-0.195961	0
2032.15	-0.116561	-0.195954	0
2032.16	-0.117573	-0.195949	0
2032.16	-0.118794	-0.195954	0
2032.16	-0.119805	-0.195951	0
2032.17	-0.120817	-0.195958	0
2032.17	-0.121866	-0.195961	0
2032.17	-0.122878	-0.195949	0
2032.18	-0.123889	-0.195959	0
2032.18	-0.124996	-0.195952	0
2032.19	-0.126046	-0.195951	0
2032.19	-0.127076	-0.195956	0
2032.19	-0.128107	-0.195954	0
2032.2	-0.129156	-0.195952	0
2032.2	-0.130187	-0.195959	0
2032.2	-0.131275	-0.195954	0
2032.21	-0.132324	-0.195956	0
2032.21	-0.133431	-0.195959	0
2032.22	-0.134557	-0.195954	0
2032.22	-0.135568	-0.195949	0
2032.23	-0.136637	-0.195954	0
2032.23	-0.137687	-0.195959	0
2032.23	-0.138851	-0.195954	0
2032.24	-0.1399	-0.195962	0
2032.24	-0.14095	-0.195961	0
2032.25	-0.14198	-0.195958	0
2032.25	-0.143011	-0.195953	0
2032.26	-0.14408	-0.19596	0
2032.26	-0.14511	-0.195957	0
2032.27	-0.146255	-0.19596	0
2032.27	-0.147267	-0.195953	0
2032.28	-0.148278	-0.195957	0
2032.28	-0.149309	-0.195958	0
2032.29	-0.15032	-0.195957	0
2032.29	-0.151331	-0.195953	0
2032.3	-0.152381	-0.195951	0
2032.3	-0.153392	-0.195954	0
2032.31	-0.154461	-0.195956	0
2032.32	-0.155511	-0.195952	0
2032.32	-0.156541	-0.195959	0
2032.33	-0.157553	-0.195958	0
2032.33	-0.158621	-0.195968	0
2032.34	-0.159671	-0.195955	0
2032.35	-0.160682	-0.195957	0
2032.35	-0.161694	-0.195961	0
2032.36	-0.162724	-0.195953	0
2032.37	-0.163774	-0.195958	0
2032.38	-0.164804	-0.195958	0
2032.38	-0.165835	-0.195954	0
2032.39	-0.166923	-0.195952	0
2032.4	-0.167953	-0.195959	0
2032.41	-0.168965	-0.195958	0
2032.42	-0.169976	-0.195949	0
2032.43	-0.171007	-0.195952	0
2032.44	-0.172094	-0.19596	0
2032.46	-0.173163	-0.195959	0
2032.47	-0.174193	-0.195958	0
2032.49	-0.175205	-0.195954	0
2032.52	-0.176254	-0.195951	0
2032.61	-0.175243	-0.195958	0
2032.63	-0.174174	-0.195959	0
2032.65	-0.173163	-0.195953	0
2032.67	-0.172152	-0.19595	0
2032.68	-0.17114	-0.195954	0
2032.69	-0.170091	-0.195954	0
2032.71	-0.16906	-0.195953	0
2032.72	-0.16801	-0.195953	0
2032.73	-0.166942	-0.195956	0
2032.74	-0.165911	-0.195958	0
2032.75	-0.164881	-0.195959	0
2032.76	-0.163793	-0.195953	0
2032.77	-0.162782	-0.19596	0
2032.79	-0.161751	-0.195962	0
2032.8	-0.16074	-0.195961	0
2032.81	-0.159709	-0.195956	0
2032.82	-0.158698	-0.195958	0
2032.83	-0.15761	-0.195958	0
2032.84	-0.156579	-0.195954	0
2032.85	-0.155511	-0.195956	0
2032.87	-0.154499	-0.195958	0
2032.88	-0.153469	-0.195959	0
2032.89	-0.152419	-0.195958	0
2032.9	-0.15137	-0.195958	0
2032.92	-0.150339	-0.195951	0
2032.93	-0.149328	-0.195956	0
2032.94	-0.148297	-0.195955	0
2032.96	-0.147286	-0.195959	0
2032.97	-0.146198	-0.195956	0
2032.99	-0.145187	-0.195958	0
2033.01	-0.144175	-0.195956	0
2033.03	-0.143145	-0.195957	0
2033.04	-0.142133	-0.195956	0
2033.06	-0.141064	-0.195956	0
2033.09	-0.140053	-0.195953	0
2033.11	-0.139042	-0.19596	0
2033.13	-0.137992	-0.195959	0
2033.16	-0.136981	-0.195959	0
2033.18	-0.135969	-0.195959	0
2033.22	-0.13492	-0.195958	0
2033.25	-0.133908	-0.195954	0
2033.29	-0.132859	-0.195956	0
2033.33	-0.131828	-0.195955	0
2033.39	-0.130798	-0.195959	0
2033.44	-0.129786	-0.195957	0
2033.5	-0.128775	-0.195954	0
2033.58	-0.127706	-0.195954	0
2033.69	-0.126675	-0.195959	0
2033.81	-0.125645	-0.195962	0
2033.97	-0.124634	-0.195956	0
2034.2	-0.123622	-0.195956	0
2034.54	-0.122611	-0.195963	0
2035.24	-0.121599	-0.19596	0
2043	-0.12263	-0.195959	0
2047.18	-0.123641	-0.195958	0
2052.06	-0.124653	-0.195958	0
2059.32	-0.125683	-0.19596	0
2069.32	-0.126179	-0.195956	0
2079.32	-0.126542	-0.195961	0
2089.32	-0.126542	-0.195961	0
2099.32	-0.126466	-0.195961	0
2109.32	-0.126351	-0.195956	0
2119.32	-0.126008	-0.195961	0
2129.32	-0.125664	-0.195962	0
2139.32	-0.125282	-0.195961	0
2146.2	-0.124271	-0.195959	0
2156.2	-0.123431	-0.195959	0
2166.2	-0.122706	-0.195962	0
2174.26	-0.121695	-0.195958	0
2183.98	-0.120683	-0.195959	0
2193.98	-0.119939	-0.195956	0
2201.77	-0.118909	-0.195962	0
2211.77	-0.118031	-0.195956	0
2221.77	-0.117153	-0.19596	0
2231.37	-0.116141	-0.195961	0
2241.37	-0.115683	-0.19596	0
2250.59	-0.114672	-0.195956	0
2260.59	-0.114061	-0.195961	0
2269.96	-0.11305	-0.19596	0
2279.96	-0.112496	-0.195956	0
2289.96	-0.111905	-0.195956	0
2299.96	-0.111275	-0.195955	0
2309.96	-0.110645	-0.195961	0
2319.96	-0.110206	-0.195963	0
2329.96	-0.109787	-0.195967	0
2339.96	-0.109271	-0.195963	0
2349.96	-0.108737	-0.195959	0
2359.96	-0.108184	-0.195962	0
2369.96	-0.107649	-0.195963	0
2379.96	-0.107134	-0.195962	0
2389.96	-0.106695	-0.195961	0
2399.96	-0.106237	-0.195961	0
2409.96	-0.105779	-0.195963	0
2419.96	-0.105531	-0.195967	0
2429.96	-0.105226	-0.195964	0
2439.96	-0.104577	-0.195963	0
2449.96	-0.104252	-0.195954	0
2459.96	-0.10389	-0.195963	0
2469.96	-0.103451	-0.195963	0
2479.96	-0.103165	-0.195955	0
2489.96	-0.102783	-0.195961	0
2499.96	-0.102401	-0.195963	0
2509.96	-0.102058	-0.195967	0
2519.96	-0.101867	-0.195959	0
2529.96	-0.101562	-0.195961	0
2539.96	-0.101065	-0.195964	0
2549.96	-0.100856	-0.195963	0
2559.96	-0.100493	-0.195961	0
2569.96	-0.100149	-0.195963	0
2579.96	-0.0997868	-0.195962	0
2589.96	-0.0994815	-0.195964	0
2599.96	-0.0992525	-0.195961	0
2609.96	-0.0988517	-0.195961	0
2619.96	-0.0986418	-0.19596	0
2629.96	-0.0983556	-0.195961	0
2639.96	-0.0980311	-0.195961	0
2649.96	-0.097764	-0.195953	0
2659.96	-0.097535	-0.195964	0
2669.96	-0.0971724	-0.195964	0
2679.96	-0.0970388	-0.195958	0
2689.96	-0.096848	-0.195965	0
2699.96	-0.0964472	-0.195965	0
2709.96	-0.0962755	-0.195956	0
2719.96	-0.0959701	-0.195959	0
2729.96	-0.0957602	-0.195965	0
2739.96	-0.0956075	-0.195963	0
2749.96	-0.0952259	-0.195962	0
2759.96	-0.0950159	-0.195959	0
2769.96	-0.094806	-0.195963	0
2779.96	-0.0947106	-0.195966	0
2789.96	-0.0943289	-0.195962	0
2799.96	-0.0940618	-0.195961	0
2809.96	-0.0939473	-0.195965	0
2819.96	-0.09389	-0.195963	0
2829.96	-0.093661	-0.195957	0
2839.96	-0.0933748	-0.19596	0
2849.96	-0.0931839	-0.195964	0
2859.96	-0.0930313	-0.19596	0
2869.96	-0.0928213	-0.19596	0
2879.96	-0.0927641	-0.195961	0
2889.96	-0.0924969	-0.195964	0
2899.96	-0.0923824	-0.195958	0
2909.96	-0.0919817	-0.195957	0
2919.96	-0.091829	-0.195961	0
2929.96	-0.0916191	-0.195959	0
2939.96	-0.0915237	-0.195955	0
2949.96	-0.0912756	-0.195956	0
2959.96	-0.0911229	-0.195962	0
2969.96	-0.090913	-0.195966	0
2979.96	-0.0907603	-0.195961	0
2989.96	-0.0906077	-0.195961	0
2999.96	-0.0904741	-0.195962	0
3009.96	-0.0903405	-0.195961	0
3019.96	-0.0902069	-0.195966	0
3029.96	-0.0899779	-0.19596	0
3039.96	-0.0898825	-0.195959	0
3049.96	-0.0898443	-0.195964	0
3059.96	-0.0897107	-0.195959	0
3069.96	-0.0896153	-0.195961	0
3079.96	-0.0895199	-0.195956	0
3089.96	-0.0893291	-0.195962	0
3099.96	-0.0891955	-0.19596	0
3109.96	-0.0891764	-0.195961	0
3119.96	-0.0891191	-0.195959	0
3129.96	-0.0889092	-0.195965	0
3139.96	-0.0887375	-0.195961	0
3149.96	-0.0888138	-0.195959	0
3159.96	-0.0886039	-0.195966	0
3169.96	-0.088413	-0.195963	0
3179.96	-0.0883176	-0.19597	0
3189.96	-0.0882222	-0.19596	0
3199.96	-0.0880123	-0.19596	0
3209.96	-0.0879932	-0.195961	0
3219.96	-0.087955	-0.195962	0
3229.96	-0.0878215	-0.195959	0
3239.96	-0.0878405	-0.195961	0
3249.96	-0.0877451	-0.195962	0
3259.96	-0.0875543	-0.195958	0
3269.96	-0.0874207	-0.195965	0
3279.96	-0.0873253	-0.195961	0
3289.96	-0.0872108	-0.195966	0
3299.96	-0.087039	-0.195958	0
3309.96	-0.0869627	-0.195958	0
3319.96	-0.08681	-0.195965	0
3329.96	-0.0866955	-0.195963	0
3339.96	-0.086581	-0.195962	0
3349.96	-0.086581	-0.195958	0
3359.96	-0.0865047	-0.195965	0
3369.96	-0.0863902	-0.195961	0
3379.96	-0.0863139	-0.195964	0
3389.96	-0.0862184	-0.195961	0
3399.96	-0.0860849	-0.195961	0
3409.96	-0.0861039	-0.19596	0
3419.96	-0.0860276	-0.195959	0
3429.96	-0.0858749	-0.195963	0
3439.96	-0.0856841	-0.195966	0
3449.96	-0.0856841	-0.195966	0
3459.96	-0.085665	-0.195962	0
3469.96	-0.085665	-0.195961	0
3479.96	-0.0855696	-0.195956	0
3489.96	-0.0855887	-0.19596	0
3499.96	-0.0854551	-0.195963	0
3509.96	-0.0853788	-0.19596	0
3519.96	-0.0853979	-0.195961	0
3529.96	-0.0852452	-0.195956	0
3539.96	-0.0853215	-0.195968	0
3549.96	-0.0851498	-0.195958	0
3559.96	-0.0850925	-0.195956	0
3569.96	-0.0850353	-0.195963	0
3579.96	-0.0848063	-0.195958	0
3589.96	-0.0847681	-0.195958	0
3599.96	-0.0846727	-0.195961	0
3609.96	-0.0848444	-0.195963	0
3619.96	-0.0846727	-0.195961	0
3629.96	-0.0846918	-0.195961	0
3639.96	-0.0845391	-0.195958	0
3649.96	-0.08452	-0.195965	0
3659.96	-0.0844246	-0.195959	0
3669.96	-0.0845391	-0.195961	0
3679.96	-0.0844818	-0.195959	0
3689.96	-0.0843673	-0.195954	0
3699.96	-0.0843673	-0.195956	0
3709.96	-0.0844628	-0.195964	0
3719.96	-0.0843483	-0.195955	0
3729.96	-0.0841765	-0.195964	0
3739.96	-0.0838903	-0.195959	0
3749.96	-0.083833	-0.195962	0
3759.96	-0.0837376	-0.195963	0
3769.96	-0.0837948	-0.195961	0
3779.96	-0.0838903	-0.195961	0
3789.96	-0.0839284	-0.195961	0
3799.96	-0.0839475	-0.195958	0
3809.96	-0.0838139	-0.19596	0
3819.96	-0.0836994	-0.195961	0
3829.96	-0.0835086	-0.195961	0
3831.95	-0.0834322	-0.195966	0